fame,ability,face,subj,angle,trial,rt,acc,sq,s001,s002,s003,s004,s005,s006,s007,s008,s009,s010,s011,s012,s013,s014,s015,s016,s017,s018,s019,s020,s021,s022,s023,s024,s025,s026,s027,s028,s029,s030,s031,s032,s033,s034,s035,s036,s037,s038,s039,s040,s041,s042,s043,s044,s045,s046,s047,s048,s049,s050,s051,s052,s053,s054,s055,s056,s057,s058,s059,s060
famous,devprop,F01,D06,A,50,2352,FALSE,s001,<undefined>,<undefined>,<undefined>,<undefined>,<undefined>,<undefined>,<undefined>,<undefined>,<undefined>,<undefined>,<undefined>,<undefined>,<undefined>,<undefined>,<undefined>,<undefined>,<undefined>,<undefined>,<undefined>,<undefined>,<undefined>,<undefined>,<undefined>,<undefined>,<undefined>,<undefined>,<undefined>,<undefined>,<undefined>,<undefined>,<undefined>,<undefined>,<undefined>,<undefined>,<undefined>,<undefined>,<undefined>,<undefined>,<undefined>,<undefined>,<undefined>,<undefined>,<undefined>,<undefined>,<undefined>,<undefined>,<undefined>,<undefined>,<undefined>,<undefined>,<undefined>,<undefined>,<undefined>,<undefined>,<undefined>,<undefined>,<undefined>,<undefined>,<undefined>,<undefined>
famous,devprop,F01,D06,B,23,5236,TRUE,s002,<undefined>,<undefined>,<undefined>,<undefined>,<undefined>,<undefined>,<undefined>,<undefined>,<undefined>,<undefined>,<undefined>,<undefined>,<undefined>,<undefined>,<undefined>,<undefined>,-0.30368,<undefined>,-0.010753,<undefined>,0.19186,<undefined>,<undefined>,<undefined>,0.18649,<undefined>,0.06022,0.096774,<undefined>,<undefined>,<undefined>,<undefined>,-0.34946,<undefined>,-0.43548,-0.28495,-0.30645,<undefined>,0.055608,<undefined>,-0.16129,<undefined>,-0.22043,-0.25269,-0.24101,<undefined>,-0.20968,-0.34409,-0.14593,<undefined>,-0.05914,<undefined>,-0.071579,<undefined>,<undefined>,<undefined>,-0.12366,<undefined>,0.039479,-0.2043
famous,devprop,F01,D06,C,1,2603,FALSE,s003,<undefined>,<undefined>,<undefined>,<undefined>,<undefined>,<undefined>,<undefined>,<undefined>,<undefined>,<undefined>,<undefined>,<undefined>,<undefined>,<undefined>,<undefined>,<undefined>,<undefined>,<undefined>,<undefined>,<undefined>,<undefined>,<undefined>,<undefined>,<undefined>,<undefined>,<undefined>,<undefined>,<undefined>,<undefined>,<undefined>,<undefined>,<undefined>,<undefined>,<undefined>,<undefined>,<undefined>,<undefined>,<undefined>,<undefined>,<undefined>,<undefined>,<undefined>,<undefined>,<undefined>,<undefined>,<undefined>,<undefined>,<undefined>,<undefined>,<undefined>,<undefined>,<undefined>,<undefined>,<undefined>,<undefined>,<undefined>,<undefined>,<undefined>,<undefined>,<undefined>
famous,devprop,F01,D06,D,94,3700,FALSE,s004,<undefined>,<undefined>,<undefined>,<undefined>,<undefined>,<undefined>,<undefined>,<undefined>,<undefined>,<undefined>,<undefined>,<undefined>,<undefined>,<undefined>,<undefined>,<undefined>,<undefined>,<undefined>,<undefined>,<undefined>,<undefined>,<undefined>,<undefined>,<undefined>,<undefined>,<undefined>,<undefined>,<undefined>,<undefined>,<undefined>,<undefined>,<undefined>,<undefined>,<undefined>,<undefined>,<undefined>,<undefined>,<undefined>,<undefined>,<undefined>,<undefined>,<undefined>,<undefined>,<undefined>,<undefined>,<undefined>,<undefined>,<undefined>,<undefined>,<undefined>,<undefined>,<undefined>,<undefined>,<undefined>,<undefined>,<undefined>,<undefined>,<undefined>,<undefined>,<undefined>
famous,devprop,F01,D08,A,139,3936,FALSE,s005,<undefined>,<undefined>,<undefined>,<undefined>,<undefined>,<undefined>,<undefined>,<undefined>,<undefined>,<undefined>,<undefined>,<undefined>,<undefined>,<undefined>,<undefined>,<undefined>,<undefined>,<undefined>,<undefined>,<undefined>,<undefined>,<undefined>,<undefined>,<undefined>,<undefined>,<undefined>,<undefined>,<undefined>,<undefined>,<undefined>,<undefined>,<undefined>,<undefined>,<undefined>,<undefined>,<undefined>,<undefined>,<undefined>,<undefined>,<undefined>,<undefined>,<undefined>,<undefined>,<undefined>,<undefined>,<undefined>,<undefined>,<undefined>,<undefined>,<undefined>,<undefined>,<undefined>,<undefined>,<undefined>,<undefined>,<undefined>,<undefined>,<undefined>,<undefined>,<undefined>
famous,devprop,F01,D08,B,10,5390,TRUE,s006,<undefined>,<undefined>,<undefined>,<undefined>,<undefined>,<undefined>,<undefined>,<undefined>,<undefined>,<undefined>,<undefined>,<undefined>,<undefined>,<undefined>,<undefined>,<undefined>,-0.24742,<undefined>,-0.24712,<undefined>,-0.17584,<undefined>,<undefined>,<undefined>,-0.14329,<undefined>,-0.13357,-0.19557,<undefined>,<undefined>,<undefined>,<undefined>,-0.35567,<undefined>,-0.3866,-0.2732,-0.23623,<undefined>,-0.048009,<undefined>,-0.2645,<undefined>,-0.20103,-0.31443,-0.35052,<undefined>,-0.35567,-0.39175,-0.27643,<undefined>,-0.2025,<undefined>,-0.20692,<undefined>,<undefined>,<undefined>,-0.028275,<undefined>,-0.041515,-0.16495
famous,devprop,F01,D08,C,109,1835,FALSE,s007,<undefined>,<undefined>,<undefined>,<undefined>,<undefined>,<undefined>,<undefined>,<undefined>,<undefined>,<undefined>,<undefined>,<undefined>,<undefined>,<undefined>,<undefined>,<undefined>,<undefined>,<undefined>,<undefined>,<undefined>,<undefined>,<undefined>,<undefined>,<undefined>,<undefined>,<undefined>,<undefined>,<undefined>,<undefined>,<undefined>,<undefined>,<undefined>,<undefined>,<undefined>,<undefined>,<undefined>,<undefined>,<undefined>,<undefined>,<undefined>,<undefined>,<undefined>,<undefined>,<undefined>,<undefined>,<undefined>,<undefined>,<undefined>,<undefined>,<undefined>,<undefined>,<undefined>,<undefined>,<undefined>,<undefined>,<undefined>,<undefined>,<undefined>,<undefined>,<undefined>
famous,devprop,F01,D08,D,144,1689,FALSE,s008,<undefined>,<undefined>,<undefined>,<undefined>,<undefined>,<undefined>,<undefined>,<undefined>,<undefined>,<undefined>,<undefined>,<undefined>,<undefined>,<undefined>,<undefined>,<undefined>,<undefined>,<undefined>,<undefined>,<undefined>,<undefined>,<undefined>,<undefined>,<undefined>,<undefined>,<undefined>,<undefined>,<undefined>,<undefined>,<undefined>,<undefined>,<undefined>,<undefined>,<undefined>,<undefined>,<undefined>,<undefined>,<undefined>,<undefined>,<undefined>,<undefined>,<undefined>,<undefined>,<undefined>,<undefined>,<undefined>,<undefined>,<undefined>,<undefined>,<undefined>,<undefined>,<undefined>,<undefined>,<undefined>,<undefined>,<undefined>,<undefined>,<undefined>,<undefined>,<undefined>
famous,devprop,F01,D13,A,118,2643,FALSE,s009,<undefined>,<undefined>,<undefined>,<undefined>,<undefined>,<undefined>,<undefined>,<undefined>,<undefined>,<undefined>,<undefined>,<undefined>,<undefined>,<undefined>,<undefined>,<undefined>,<undefined>,<undefined>,<undefined>,<undefined>,<undefined>,<undefined>,<undefined>,<undefined>,<undefined>,<undefined>,<undefined>,<undefined>,<undefined>,<undefined>,<undefined>,<undefined>,<undefined>,<undefined>,<undefined>,<undefined>,<undefined>,<undefined>,<undefined>,<undefined>,<undefined>,<undefined>,<undefined>,<undefined>,<undefined>,<undefined>,<undefined>,<undefined>,<undefined>,<undefined>,<undefined>,<undefined>,<undefined>,<undefined>,<undefined>,<undefined>,<undefined>,<undefined>,<undefined>,<undefined>
famous,devprop,F01,D13,B,24,2546,FALSE,s010,<undefined>,<undefined>,<undefined>,<undefined>,<undefined>,<undefined>,<undefined>,<undefined>,<undefined>,<undefined>,<undefined>,<undefined>,<undefined>,<undefined>,<undefined>,<undefined>,<undefined>,<undefined>,<undefined>,<undefined>,<undefined>,<undefined>,<undefined>,<undefined>,<undefined>,<undefined>,<undefined>,<undefined>,<undefined>,<undefined>,<undefined>,<undefined>,<undefined>,<undefined>,<undefined>,<undefined>,<undefined>,<undefined>,<undefined>,<undefined>,<undefined>,<undefined>,<undefined>,<undefined>,<undefined>,<undefined>,<undefined>,<undefined>,<undefined>,<undefined>,<undefined>,<undefined>,<undefined>,<undefined>,<undefined>,<undefined>,<undefined>,<undefined>,<undefined>,<undefined>
famous,devprop,F01,D13,C,23,3463,FALSE,s011,<undefined>,<undefined>,<undefined>,<undefined>,<undefined>,<undefined>,<undefined>,<undefined>,<undefined>,<undefined>,<undefined>,<undefined>,<undefined>,<undefined>,<undefined>,<undefined>,<undefined>,<undefined>,<undefined>,<undefined>,<undefined>,<undefined>,<undefined>,<undefined>,<undefined>,<undefined>,<undefined>,<undefined>,<undefined>,<undefined>,<undefined>,<undefined>,<undefined>,<undefined>,<undefined>,<undefined>,<undefined>,<undefined>,<undefined>,<undefined>,<undefined>,<undefined>,<undefined>,<undefined>,<undefined>,<undefined>,<undefined>,<undefined>,<undefined>,<undefined>,<undefined>,<undefined>,<undefined>,<undefined>,<undefined>,<undefined>,<undefined>,<undefined>,<undefined>,<undefined>
famous,devprop,F01,D13,D,1,1530,FALSE,s012,<undefined>,<undefined>,<undefined>,<undefined>,<undefined>,<undefined>,<undefined>,<undefined>,<undefined>,<undefined>,<undefined>,<undefined>,<undefined>,<undefined>,<undefined>,<undefined>,<undefined>,<undefined>,<undefined>,<undefined>,<undefined>,<undefined>,<undefined>,<undefined>,<undefined>,<undefined>,<undefined>,<undefined>,<undefined>,<undefined>,<undefined>,<undefined>,<undefined>,<undefined>,<undefined>,<undefined>,<undefined>,<undefined>,<undefined>,<undefined>,<undefined>,<undefined>,<undefined>,<undefined>,<undefined>,<undefined>,<undefined>,<undefined>,<undefined>,<undefined>,<undefined>,<undefined>,<undefined>,<undefined>,<undefined>,<undefined>,<undefined>,<undefined>,<undefined>,<undefined>
famous,devprop,F01,D14,A,10,2766,FALSE,s013,<undefined>,<undefined>,<undefined>,<undefined>,<undefined>,<undefined>,<undefined>,<undefined>,<undefined>,<undefined>,<undefined>,<undefined>,<undefined>,<undefined>,<undefined>,<undefined>,<undefined>,<undefined>,<undefined>,<undefined>,<undefined>,<undefined>,<undefined>,<undefined>,<undefined>,<undefined>,<undefined>,<undefined>,<undefined>,<undefined>,<undefined>,<undefined>,<undefined>,<undefined>,<undefined>,<undefined>,<undefined>,<undefined>,<undefined>,<undefined>,<undefined>,<undefined>,<undefined>,<undefined>,<undefined>,<undefined>,<undefined>,<undefined>,<undefined>,<undefined>,<undefined>,<undefined>,<undefined>,<undefined>,<undefined>,<undefined>,<undefined>,<undefined>,<undefined>,<undefined>
famous,devprop,F01,D14,B,140,1047,FALSE,s014,<undefined>,<undefined>,<undefined>,<undefined>,<undefined>,<undefined>,<undefined>,<undefined>,<undefined>,<undefined>,<undefined>,<undefined>,<undefined>,<undefined>,<undefined>,<undefined>,<undefined>,<undefined>,<undefined>,<undefined>,<undefined>,<undefined>,<undefined>,<undefined>,<undefined>,<undefined>,<undefined>,<undefined>,<undefined>,<undefined>,<undefined>,<undefined>,<undefined>,<undefined>,<undefined>,<undefined>,<undefined>,<undefined>,<undefined>,<undefined>,<undefined>,<undefined>,<undefined>,<undefined>,<undefined>,<undefined>,<undefined>,<undefined>,<undefined>,<undefined>,<undefined>,<undefined>,<undefined>,<undefined>,<undefined>,<undefined>,<undefined>,<undefined>,<undefined>,<undefined>
famous,devprop,F01,D14,C,16,3165,FALSE,s015,<undefined>,<undefined>,<undefined>,<undefined>,<undefined>,<undefined>,<undefined>,<undefined>,<undefined>,<undefined>,<undefined>,<undefined>,<undefined>,<undefined>,<undefined>,<undefined>,<undefined>,<undefined>,<undefined>,<undefined>,<undefined>,<undefined>,<undefined>,<undefined>,<undefined>,<undefined>,<undefined>,<undefined>,<undefined>,<undefined>,<undefined>,<undefined>,<undefined>,<undefined>,<undefined>,<undefined>,<undefined>,<undefined>,<undefined>,<undefined>,<undefined>,<undefined>,<undefined>,<undefined>,<undefined>,<undefined>,<undefined>,<undefined>,<undefined>,<undefined>,<undefined>,<undefined>,<undefined>,<undefined>,<undefined>,<undefined>,<undefined>,<undefined>,<undefined>,<undefined>
famous,devprop,F01,D14,D,124,1104,FALSE,s016,<undefined>,<undefined>,<undefined>,<undefined>,<undefined>,<undefined>,<undefined>,<undefined>,<undefined>,<undefined>,<undefined>,<undefined>,<undefined>,<undefined>,<undefined>,<undefined>,<undefined>,<undefined>,<undefined>,<undefined>,<undefined>,<undefined>,<undefined>,<undefined>,<undefined>,<undefined>,<undefined>,<undefined>,<undefined>,<undefined>,<undefined>,<undefined>,<undefined>,<undefined>,<undefined>,<undefined>,<undefined>,<undefined>,<undefined>,<undefined>,<undefined>,<undefined>,<undefined>,<undefined>,<undefined>,<undefined>,<undefined>,<undefined>,<undefined>,<undefined>,<undefined>,<undefined>,<undefined>,<undefined>,<undefined>,<undefined>,<undefined>,<undefined>,<undefined>,<undefined>
famous,devprop,F01,D15,A,152,1335,TRUE,s017,<undefined>,-0.30368,<undefined>,<undefined>,<undefined>,-0.24742,<undefined>,<undefined>,<undefined>,<undefined>,<undefined>,<undefined>,<undefined>,<undefined>,<undefined>,<undefined>,<undefined>,<undefined>,<undefined>,<undefined>,<undefined>,-0.27604,<undefined>,<undefined>,<undefined>,-0.25,-0.15179,-0.057723,<undefined>,<undefined>,<undefined>,<undefined>,<undefined>,-0.11925,0.098146,-0.045928,<undefined>,-0.099067,-0.27971,<undefined>,<undefined>,<undefined>,0.13416,-0.19874,<undefined>,-0.07261,0.14162,-0.10497,<undefined>,-0.23219,-0.018566,<undefined>,<undefined>,-0.24988,<undefined>,<undefined>,<undefined>,-0.17269,-0.18084,0.14083
famous,devprop,F01,D15,B,105,1564,TRUE,s018,<undefined>,<undefined>,<undefined>,<undefined>,<undefined>,<undefined>,<undefined>,<undefined>,<undefined>,<undefined>,<undefined>,<undefined>,<undefined>,<undefined>,<undefined>,<undefined>,<undefined>,<undefined>,<undefined>,<undefined>,-0.11667,<undefined>,<undefined>,<undefined>,-0.12559,<undefined>,-0.0089286,0.14286,<undefined>,<undefined>,<undefined>,<undefined>,-0.012164,<undefined>,-0.018519,0.068265,-0.1491,<undefined>,-0.16049,<undefined>,0.074074,<undefined>,-0.055556,0.055556,-0.29893,<undefined>,-0.1693,-0.32062,0.016667,<undefined>,0.010723,<undefined>,0.016737,<undefined>,<undefined>,<undefined>,-0.092571,<undefined>,-0.051136,0.014706
famous,devprop,F01,D15,C,45,2441,TRUE,s019,<undefined>,-0.010753,<undefined>,<undefined>,<undefined>,-0.24712,<undefined>,<undefined>,<undefined>,<undefined>,<undefined>,<undefined>,<undefined>,<undefined>,<undefined>,<undefined>,<undefined>,<undefined>,<undefined>,<undefined>,0.11857,-0.088542,<undefined>,<undefined>,0.038594,0.052326,<undefined>,0.46939,<undefined>,<undefined>,<undefined>,<undefined>,-0.011111,-0.18889,<undefined>,-0.01269,-0.13184,-0.055228,<undefined>,<undefined>,-0.066667,<undefined>,<undefined>,-0.14602,0.022222,0.014924,<undefined>,-0.2,0.24635,-0.045523,<undefined>,<undefined>,0.088889,-0.032787,<undefined>,<undefined>,-0.010416,0.23046,<undefined>,0.065087
famous,devprop,F01,D15,D,98,1487,FALSE,s020,<undefined>,<undefined>,<undefined>,<undefined>,<undefined>,<undefined>,<undefined>,<undefined>,<undefined>,<undefined>,<undefined>,<undefined>,<undefined>,<undefined>,<undefined>,<undefined>,<undefined>,<undefined>,<undefined>,<undefined>,<undefined>,<undefined>,<undefined>,<undefined>,<undefined>,<undefined>,<undefined>,<undefined>,<undefined>,<undefined>,<undefined>,<undefined>,<undefined>,<undefined>,<undefined>,<undefined>,<undefined>,<undefined>,<undefined>,<undefined>,<undefined>,<undefined>,<undefined>,<undefined>,<undefined>,<undefined>,<undefined>,<undefined>,<undefined>,<undefined>,<undefined>,<undefined>,<undefined>,<undefined>,<undefined>,<undefined>,<undefined>,<undefined>,<undefined>,<undefined>
famous,devprop,F01,D16,A,25,4633,TRUE,s021,<undefined>,0.19186,<undefined>,<undefined>,<undefined>,-0.17584,<undefined>,<undefined>,<undefined>,<undefined>,<undefined>,<undefined>,<undefined>,<undefined>,<undefined>,<undefined>,<undefined>,-0.11667,0.11857,<undefined>,<undefined>,<undefined>,<undefined>,<undefined>,<undefined>,0.070479,0.028731,0.15572,<undefined>,<undefined>,<undefined>,<undefined>,<undefined>,-0.31111,-0.3,-0.2,<undefined>,-0.19905,0.28445,<undefined>,<undefined>,<undefined>,-0.27778,-0.3,<undefined>,-0.14444,-0.2,-0.31667,<undefined>,-0.018246,0.0084151,<undefined>,<undefined>,-0.010158,<undefined>,<undefined>,<undefined>,0.090006,0.25667,-0.070316
famous,devprop,F01,D16,B,152,9218,TRUE,s022,<undefined>,<undefined>,<undefined>,<undefined>,<undefined>,<undefined>,<undefined>,<undefined>,<undefined>,<undefined>,<undefined>,<undefined>,<undefined>,<undefined>,<undefined>,<undefined>,-0.27604,<undefined>,-0.088542,<undefined>,<undefined>,<undefined>,<undefined>,<undefined>,0.027089,<undefined>,0.018306,-0.042254,<undefined>,<undefined>,<undefined>,<undefined>,-0.29419,<undefined>,-0.32292,-0.15625,-0.1875,<undefined>,0.062653,<undefined>,-0.25952,<undefined>,-0.19792,-0.27083,-0.31771,<undefined>,-0.30208,-0.33854,-0.15878,<undefined>,-0.087648,<undefined>,-0.14747,<undefined>,<undefined>,<undefined>,0.020833,<undefined>,0.12783,-0.098958
famous,devprop,F01,D16,C,53,4745,FALSE,s023,<undefined>,<undefined>,<undefined>,<undefined>,<undefined>,<undefined>,<undefined>,<undefined>,<undefined>,<undefined>,<undefined>,<undefined>,<undefined>,<undefined>,<undefined>,<undefined>,<undefined>,<undefined>,<undefined>,<undefined>,<undefined>,<undefined>,<undefined>,<undefined>,<undefined>,<undefined>,<undefined>,<undefined>,<undefined>,<undefined>,<undefined>,<undefined>,<undefined>,<undefined>,<undefined>,<undefined>,<undefined>,<undefined>,<undefined>,<undefined>,<undefined>,<undefined>,<undefined>,<undefined>,<undefined>,<undefined>,<undefined>,<undefined>,<undefined>,<undefined>,<undefined>,<undefined>,<undefined>,<undefined>,<undefined>,<undefined>,<undefined>,<undefined>,<undefined>,<undefined>
famous,devprop,F01,D16,D,39,4961,FALSE,s024,<undefined>,<undefined>,<undefined>,<undefined>,<undefined>,<undefined>,<undefined>,<undefined>,<undefined>,<undefined>,<undefined>,<undefined>,<undefined>,<undefined>,<undefined>,<undefined>,<undefined>,<undefined>,<undefined>,<undefined>,<undefined>,<undefined>,<undefined>,<undefined>,<undefined>,<undefined>,<undefined>,<undefined>,<undefined>,<undefined>,<undefined>,<undefined>,<undefined>,<undefined>,<undefined>,<undefined>,<undefined>,<undefined>,<undefined>,<undefined>,<undefined>,<undefined>,<undefined>,<undefined>,<undefined>,<undefined>,<undefined>,<undefined>,<undefined>,<undefined>,<undefined>,<undefined>,<undefined>,<undefined>,<undefined>,<undefined>,<undefined>,<undefined>,<undefined>,<undefined>
famous,devprop,F01,D17,A,111,3608,TRUE,s025,<undefined>,0.18649,<undefined>,<undefined>,<undefined>,-0.14329,<undefined>,<undefined>,<undefined>,<undefined>,<undefined>,<undefined>,<undefined>,<undefined>,<undefined>,<undefined>,<undefined>,-0.12559,0.038594,<undefined>,<undefined>,0.027089,<undefined>,<undefined>,<undefined>,<undefined>,<undefined>,<undefined>,<undefined>,<undefined>,<undefined>,<undefined>,<undefined>,-0.35075,-0.41045,-0.20149,<undefined>,-0.19147,-0.098765,<undefined>,<undefined>,<undefined>,-0.052239,-0.23753,<undefined>,-0.0074627,-0.097015,-0.28358,<undefined>,-0.067222,-0.096576,<undefined>,<undefined>,0.053519,<undefined>,<undefined>,<undefined>,0.14118,0.057793,-0.1678
famous,devprop,F01,D17,B,29,4577,TRUE,s026,<undefined>,<undefined>,<undefined>,<undefined>,<undefined>,<undefined>,<undefined>,<undefined>,<undefined>,<undefined>,<undefined>,<undefined>,<undefined>,<undefined>,<undefined>,<undefined>,-0.25,<undefined>,0.052326,<undefined>,0.070479,<undefined>,<undefined>,<undefined>,<undefined>,<undefined>,<undefined>,<undefined>,<undefined>,<undefined>,<undefined>,<undefined>,-0.31395,<undefined>,-0.40698,-0.26744,-0.31196,<undefined>,0.11728,<undefined>,-0.15698,<undefined>,-0.15116,-0.22093,-0.21512,<undefined>,-0.18605,-0.3314,-0.046512,<undefined>,0.13472,<undefined>,0.063953,<undefined>,<undefined>,<undefined>,-0.21495,<undefined>,-0.062333,-0.21512
famous,devprop,F01,D17,C,11,3039,TRUE,s027,<undefined>,0.06022,<undefined>,<undefined>,<undefined>,-0.13357,<undefined>,<undefined>,<undefined>,<undefined>,<undefined>,<undefined>,<undefined>,<undefined>,<undefined>,<undefined>,-0.15179,-0.0089286,<undefined>,<undefined>,0.028731,0.018306,<undefined>,<undefined>,<undefined>,<undefined>,<undefined>,<undefined>,<undefined>,<undefined>,<undefined>,<undefined>,-0.28571,-0.32143,<undefined>,-0.28571,-0.25,-0.1278,<undefined>,<undefined>,0.0089286,<undefined>,<undefined>,-0.125,-0.098214,-0.043111,<undefined>,-0.24107,0.09235,0.15791,<undefined>,<undefined>,0.16531,0.34334,<undefined>,<undefined>,-0.10228,0.039504,<undefined>,-0.16964
famous,devprop,F01,D17,D,78,2651,TRUE,s028,<undefined>,0.096774,<undefined>,<undefined>,<undefined>,-0.19557,<undefined>,<undefined>,<undefined>,<undefined>,<undefined>,<undefined>,<undefined>,<undefined>,<undefined>,<undefined>,-0.057723,0.14286,0.46939,<undefined>,0.15572,-0.042254,<undefined>,<undefined>,<undefined>,<undefined>,<undefined>,<undefined>,<undefined>,<undefined>,<undefined>,<undefined>,-0.010204,-0.17347,-0.19388,<undefined>,-0.069377,-0.0014504,0.073197,<undefined>,-0.086585,<undefined>,-0.05102,<undefined>,-0.020408,-0.011654,-0.071429,<undefined>,-0.0046515,-0.025327,0.083383,<undefined>,0.061224,-0.001165,<undefined>,<undefined>,-0.044777,0.11282,0.016238,<undefined>
famous,devprop,F01,D18,A,42,2055,FALSE,s029,<undefined>,<undefined>,<undefined>,<undefined>,<undefined>,<undefined>,<undefined>,<undefined>,<undefined>,<undefined>,<undefined>,<undefined>,<undefined>,<undefined>,<undefined>,<undefined>,<undefined>,<undefined>,<undefined>,<undefined>,<undefined>,<undefined>,<undefined>,<undefined>,<undefined>,<undefined>,<undefined>,<undefined>,<undefined>,<undefined>,<undefined>,<undefined>,<undefined>,<undefined>,<undefined>,<undefined>,<undefined>,<undefined>,<undefined>,<undefined>,<undefined>,<undefined>,<undefined>,<undefined>,<undefined>,<undefined>,<undefined>,<undefined>,<undefined>,<undefined>,<undefined>,<undefined>,<undefined>,<undefined>,<undefined>,<undefined>,<undefined>,<undefined>,<undefined>,<undefined>
famous,devprop,F01,D18,B,87,2735,FALSE,s030,<undefined>,<undefined>,<undefined>,<undefined>,<undefined>,<undefined>,<undefined>,<undefined>,<undefined>,<undefined>,<undefined>,<undefined>,<undefined>,<undefined>,<undefined>,<undefined>,<undefined>,<undefined>,<undefined>,<undefined>,<undefined>,<undefined>,<undefined>,<undefined>,<undefined>,<undefined>,<undefined>,<undefined>,<undefined>,<undefined>,<undefined>,<undefined>,<undefined>,<undefined>,<undefined>,<undefined>,<undefined>,<undefined>,<undefined>,<undefined>,<undefined>,<undefined>,<undefined>,<undefined>,<undefined>,<undefined>,<undefined>,<undefined>,<undefined>,<undefined>,<undefined>,<undefined>,<undefined>,<undefined>,<undefined>,<undefined>,<undefined>,<undefined>,<undefined>,<undefined>
famous,devprop,F01,D18,C,91,2656,FALSE,s031,<undefined>,<undefined>,<undefined>,<undefined>,<undefined>,<undefined>,<undefined>,<undefined>,<undefined>,<undefined>,<undefined>,<undefined>,<undefined>,<undefined>,<undefined>,<undefined>,<undefined>,<undefined>,<undefined>,<undefined>,<undefined>,<undefined>,<undefined>,<undefined>,<undefined>,<undefined>,<undefined>,<undefined>,<undefined>,<undefined>,<undefined>,<undefined>,<undefined>,<undefined>,<undefined>,<undefined>,<undefined>,<undefined>,<undefined>,<undefined>,<undefined>,<undefined>,<undefined>,<undefined>,<undefined>,<undefined>,<undefined>,<undefined>,<undefined>,<undefined>,<undefined>,<undefined>,<undefined>,<undefined>,<undefined>,<undefined>,<undefined>,<undefined>,<undefined>,<undefined>
famous,devprop,F01,D18,D,71,2575,FALSE,s032,<undefined>,<undefined>,<undefined>,<undefined>,<undefined>,<undefined>,<undefined>,<undefined>,<undefined>,<undefined>,<undefined>,<undefined>,<undefined>,<undefined>,<undefined>,<undefined>,<undefined>,<undefined>,<undefined>,<undefined>,<undefined>,<undefined>,<undefined>,<undefined>,<undefined>,<undefined>,<undefined>,<undefined>,<undefined>,<undefined>,<undefined>,<undefined>,<undefined>,<undefined>,<undefined>,<undefined>,<undefined>,<undefined>,<undefined>,<undefined>,<undefined>,<undefined>,<undefined>,<undefined>,<undefined>,<undefined>,<undefined>,<undefined>,<undefined>,<undefined>,<undefined>,<undefined>,<undefined>,<undefined>,<undefined>,<undefined>,<undefined>,<undefined>,<undefined>,<undefined>
famous,devprop,F01,D90,A,100,909,TRUE,s033,<undefined>,-0.34946,<undefined>,<undefined>,<undefined>,-0.35567,<undefined>,<undefined>,<undefined>,<undefined>,<undefined>,<undefined>,<undefined>,<undefined>,<undefined>,<undefined>,<undefined>,-0.012164,-0.011111,<undefined>,<undefined>,-0.29419,<undefined>,<undefined>,<undefined>,-0.31395,-0.28571,-0.010204,<undefined>,<undefined>,<undefined>,<undefined>,<undefined>,<undefined>,<undefined>,<undefined>,<undefined>,-0.12856,-0.24074,<undefined>,<undefined>,<undefined>,0.05,-0.069036,<undefined>,-0.30893,-0.27778,-0.09375,<undefined>,-0.23333,-0.025,<undefined>,<undefined>,-0.27049,<undefined>,<undefined>,<undefined>,-0.14706,-0.25,0.014286
famous,devprop,F01,D90,B,25,933,TRUE,s034,<undefined>,<undefined>,<undefined>,<undefined>,<undefined>,<undefined>,<undefined>,<undefined>,<undefined>,<undefined>,<undefined>,<undefined>,<undefined>,<undefined>,<undefined>,<undefined>,-0.11925,<undefined>,-0.18889,<undefined>,-0.31111,<undefined>,<undefined>,<undefined>,-0.35075,<undefined>,-0.32143,-0.17347,<undefined>,<undefined>,<undefined>,<undefined>,<undefined>,<undefined>,<undefined>,<undefined>,-0.19256,<undefined>,-0.25309,<undefined>,-0.11905,<undefined>,-0.05,0.27778,-0.76384,<undefined>,-0.65713,-0.5723,-0.28284,<undefined>,-0.32678,<undefined>,-0.34734,<undefined>,<undefined>,<undefined>,-0.11538,<undefined>,-0.27273,-0.042857
famous,devprop,F01,D90,C,110,822,TRUE,s035,<undefined>,-0.43548,<undefined>,<undefined>,<undefined>,-0.3866,<undefined>,<undefined>,<undefined>,<undefined>,<undefined>,<undefined>,<undefined>,<undefined>,<undefined>,<undefined>,0.098146,-0.018519,<undefined>,<undefined>,-0.3,-0.32292,<undefined>,<undefined>,-0.41045,-0.40698,<undefined>,-0.19388,<undefined>,<undefined>,<undefined>,<undefined>,<undefined>,<undefined>,<undefined>,<undefined>,-0.3125,-0.1129,<undefined>,<undefined>,-0.21429,<undefined>,<undefined>,-0.11111,-0.67647,-0.51726,<undefined>,-0.45833,-0.3,-0.3,<undefined>,<undefined>,-0.34041,-0.40164,<undefined>,<undefined>,-0.15385,-0.26471,<undefined>,0.014286
famous,devprop,F01,D90,D,23,1213,TRUE,s036,<undefined>,-0.28495,<undefined>,<undefined>,<undefined>,-0.2732,<undefined>,<undefined>,<undefined>,<undefined>,<undefined>,<undefined>,<undefined>,<undefined>,<undefined>,<undefined>,-0.045928,0.068265,-0.01269,<undefined>,-0.2,-0.15625,<undefined>,<undefined>,-0.20149,-0.26744,-0.28571,<undefined>,<undefined>,<undefined>,<undefined>,<undefined>,<undefined>,<undefined>,<undefined>,<undefined>,-0.16667,0.16406,-0.11728,<undefined>,-0.11364,<undefined>,-0.045455,<undefined>,-0.64672,-0.63807,-0.59414,<undefined>,-0.29093,-0.2899,-0.25355,<undefined>,-0.35917,-0.35246,<undefined>,<undefined>,0.076923,-0.094327,-0.14773,<undefined>
famous,devprop,F01,D91,A,140,2494,TRUE,s037,<undefined>,-0.30645,<undefined>,<undefined>,<undefined>,-0.23623,<undefined>,<undefined>,<undefined>,<undefined>,<undefined>,<undefined>,<undefined>,<undefined>,<undefined>,<undefined>,<undefined>,-0.1491,-0.13184,<undefined>,<undefined>,-0.1875,<undefined>,<undefined>,<undefined>,-0.31196,-0.25,-0.069377,<undefined>,<undefined>,<undefined>,<undefined>,<undefined>,-0.19256,-0.3125,-0.16667,<undefined>,<undefined>,<undefined>,<undefined>,<undefined>,<undefined>,-0.1875,-0.16667,<undefined>,-0.38659,-0.37291,-0.39047,<undefined>,-0.22647,-0.23065,<undefined>,<undefined>,-0.29765,<undefined>,<undefined>,<undefined>,-0.088235,-0.17321,-0.03125
famous,devprop,F01,D91,B,142,1597,TRUE,s038,<undefined>,<undefined>,<undefined>,<undefined>,<undefined>,<undefined>,<undefined>,<undefined>,<undefined>,<undefined>,<undefined>,<undefined>,<undefined>,<undefined>,<undefined>,<undefined>,-0.099067,<undefined>,-0.055228,<undefined>,-0.19905,<undefined>,<undefined>,<undefined>,-0.19147,<undefined>,-0.1278,-0.0014504,<undefined>,<undefined>,<undefined>,<undefined>,-0.12856,<undefined>,-0.1129,0.16406,<undefined>,<undefined>,<undefined>,<undefined>,0.064516,<undefined>,-0.056214,0.17742,-0.56633,<undefined>,-0.47233,-0.44284,0.048387,<undefined>,0.17537,<undefined>,-0.080812,<undefined>,<undefined>,<undefined>,0.04671,<undefined>,-0.1797,0.11919
famous,devprop,F01,D91,C,62,4021,TRUE,s039,<undefined>,0.055608,<undefined>,<undefined>,<undefined>,-0.048009,<undefined>,<undefined>,<undefined>,<undefined>,<undefined>,<undefined>,<undefined>,<undefined>,<undefined>,<undefined>,-0.27971,-0.16049,<undefined>,<undefined>,0.28445,0.062653,<undefined>,<undefined>,-0.098765,0.11728,<undefined>,0.073197,<undefined>,<undefined>,<undefined>,<undefined>,-0.24074,-0.25309,<undefined>,-0.11728,<undefined>,<undefined>,<undefined>,<undefined>,-0.22222,<undefined>,<undefined>,-0.19136,-0.2963,-0.2612,<undefined>,-0.30864,-0.17689,0.089779,<undefined>,<undefined>,-0.11111,0.04551,<undefined>,<undefined>,-0.019396,-0.0040547,<undefined>,-0.027687
famous,devprop,F01,D91,D,26,1615,FALSE,s040,<undefined>,<undefined>,<undefined>,<undefined>,<undefined>,<undefined>,<undefined>,<undefined>,<undefined>,<undefined>,<undefined>,<undefined>,<undefined>,<undefined>,<undefined>,<undefined>,<undefined>,<undefined>,<undefined>,<undefined>,<undefined>,<undefined>,<undefined>,<undefined>,<undefined>,<undefined>,<undefined>,<undefined>,<undefined>,<undefined>,<undefined>,<undefined>,<undefined>,<undefined>,<undefined>,<undefined>,<undefined>,<undefined>,<undefined>,<undefined>,<undefined>,<undefined>,<undefined>,<undefined>,<undefined>,<undefined>,<undefined>,<undefined>,<undefined>,<undefined>,<undefined>,<undefined>,<undefined>,<undefined>,<undefined>,<undefined>,<undefined>,<undefined>,<undefined>,<undefined>
famous,devprop,F01,D92,A,148,1221,TRUE,s041,<undefined>,-0.16129,<undefined>,<undefined>,<undefined>,-0.2645,<undefined>,<undefined>,<undefined>,<undefined>,<undefined>,<undefined>,<undefined>,<undefined>,<undefined>,<undefined>,<undefined>,0.074074,-0.066667,<undefined>,<undefined>,-0.25952,<undefined>,<undefined>,<undefined>,-0.15698,0.0089286,-0.086585,<undefined>,<undefined>,<undefined>,<undefined>,<undefined>,-0.11905,-0.21429,-0.11364,<undefined>,0.064516,-0.22222,<undefined>,<undefined>,<undefined>,<undefined>,<undefined>,<undefined>,-0.068422,0.12383,-0.039449,<undefined>,-0.18667,0.1125,<undefined>,<undefined>,0.016393,<undefined>,<undefined>,<undefined>,-0.051471,-0.1875,-0.07591
famous,devprop,F01,D92,B,30,6089,FALSE,s042,<undefined>,<undefined>,<undefined>,<undefined>,<undefined>,<undefined>,<undefined>,<undefined>,<undefined>,<undefined>,<undefined>,<undefined>,<undefined>,<undefined>,<undefined>,<undefined>,<undefined>,<undefined>,<undefined>,<undefined>,<undefined>,<undefined>,<undefined>,<undefined>,<undefined>,<undefined>,<undefined>,<undefined>,<undefined>,<undefined>,<undefined>,<undefined>,<undefined>,<undefined>,<undefined>,<undefined>,<undefined>,<undefined>,<undefined>,<undefined>,<undefined>,<undefined>,<undefined>,<undefined>,<undefined>,<undefined>,<undefined>,<undefined>,<undefined>,<undefined>,<undefined>,<undefined>,<undefined>,<undefined>,<undefined>,<undefined>,<undefined>,<undefined>,<undefined>,<undefined>
famous,devprop,F01,D92,C,153,1173,TRUE,s043,<undefined>,-0.22043,<undefined>,<undefined>,<undefined>,-0.20103,<undefined>,<undefined>,<undefined>,<undefined>,<undefined>,<undefined>,<undefined>,<undefined>,<undefined>,<undefined>,0.13416,-0.055556,<undefined>,<undefined>,-0.27778,-0.19792,<undefined>,<undefined>,-0.052239,-0.15116,<undefined>,-0.05102,<undefined>,<undefined>,<undefined>,<undefined>,0.05,-0.05,<undefined>,-0.045455,-0.1875,-0.056214,<undefined>,<undefined>,<undefined>,<undefined>,<undefined>,<undefined>,0.0093146,-0.047589,<undefined>,-0.075,0.011438,-0.24667,<undefined>,<undefined>,0.035925,-0.080561,<undefined>,<undefined>,-0.11209,-0.11765,<undefined>,0.059594
famous,devprop,F01,D92,D,127,1059,TRUE,s044,<undefined>,-0.25269,<undefined>,<undefined>,<undefined>,-0.31443,<undefined>,<undefined>,<undefined>,<undefined>,<undefined>,<undefined>,<undefined>,<undefined>,<undefined>,<undefined>,-0.19874,0.055556,-0.14602,<undefined>,-0.3,-0.27083,<undefined>,<undefined>,-0.23753,-0.22093,-0.125,<undefined>,<undefined>,<undefined>,<undefined>,<undefined>,-0.069036,0.27778,-0.11111,<undefined>,-0.16667,0.17742,-0.19136,<undefined>,<undefined>,<undefined>,<undefined>,<undefined>,-0.67933,-0.55474,-0.48488,<undefined>,-0.10809,-0.27657,-0.12249,<undefined>,-0.016316,-0.15574,<undefined>,<undefined>,-0.092854,-0.13235,-0.21591,<undefined>
famous,devprop,F01,D93,A,81,1038,TRUE,s045,<undefined>,-0.24101,<undefined>,<undefined>,<undefined>,-0.35052,<undefined>,<undefined>,<undefined>,<undefined>,<undefined>,<undefined>,<undefined>,<undefined>,<undefined>,<undefined>,<undefined>,-0.29893,0.022222,<undefined>,<undefined>,-0.31771,<undefined>,<undefined>,<undefined>,-0.21512,-0.098214,-0.020408,<undefined>,<undefined>,<undefined>,<undefined>,<undefined>,-0.76384,-0.67647,-0.64672,<undefined>,-0.56633,-0.2963,<undefined>,<undefined>,<undefined>,0.0093146,-0.67933,<undefined>,<undefined>,<undefined>,<undefined>,<undefined>,-0.20552,-0.13928,<undefined>,<undefined>,-0.11475,<undefined>,<undefined>,<undefined>,-0.1458,-0.33523,-0.33508
famous,devprop,F01,D93,B,20,1413,TRUE,s046,<undefined>,<undefined>,<undefined>,<undefined>,<undefined>,<undefined>,<undefined>,<undefined>,<undefined>,<undefined>,<undefined>,<undefined>,<undefined>,<undefined>,<undefined>,<undefined>,-0.07261,<undefined>,0.014924,<undefined>,-0.14444,<undefined>,<undefined>,<undefined>,-0.0074627,<undefined>,-0.043111,-0.011654,<undefined>,<undefined>,<undefined>,<undefined>,-0.30893,<undefined>,-0.51726,-0.63807,-0.38659,<undefined>,-0.2612,<undefined>,-0.068422,<undefined>,-0.047589,-0.55474,<undefined>,<undefined>,<undefined>,<undefined>,-0.15523,<undefined>,-0.19749,<undefined>,0.093067,<undefined>,<undefined>,<undefined>,-0.25137,<undefined>,-0.28409,-0.31793
famous,devprop,F01,D93,C,129,1116,TRUE,s047,<undefined>,-0.20968,<undefined>,<undefined>,<undefined>,-0.35567,<undefined>,<undefined>,<undefined>,<undefined>,<undefined>,<undefined>,<undefined>,<undefined>,<undefined>,<undefined>,0.14162,-0.1693,<undefined>,<undefined>,-0.2,-0.30208,<undefined>,<undefined>,-0.097015,-0.18605,<undefined>,-0.071429,<undefined>,<undefined>,<undefined>,<undefined>,-0.27778,-0.65713,<undefined>,-0.59414,-0.37291,-0.47233,<undefined>,<undefined>,0.12383,<undefined>,<undefined>,-0.48488,<undefined>,<undefined>,<undefined>,<undefined>,0.0057191,-0.2099,<undefined>,<undefined>,-0.014286,-0.12295,<undefined>,<undefined>,-0.32692,-0.16176,<undefined>,-0.3612
famous,devprop,F01,D93,D,143,926,TRUE,s048,<undefined>,-0.34409,<undefined>,<undefined>,<undefined>,-0.39175,<undefined>,<undefined>,<undefined>,<undefined>,<undefined>,<undefined>,<undefined>,<undefined>,<undefined>,<undefined>,-0.10497,-0.32062,-0.2,<undefined>,-0.31667,-0.33854,<undefined>,<undefined>,-0.28358,-0.3314,-0.24107,<undefined>,<undefined>,<undefined>,<undefined>,<undefined>,-0.09375,-0.5723,-0.45833,<undefined>,-0.39047,-0.44284,-0.30864,<undefined>,-0.039449,<undefined>,-0.075,<undefined>,<undefined>,<undefined>,<undefined>,<undefined>,-0.05,-0.29333,-0.1625,<undefined>,-0.11429,-0.27869,<undefined>,<undefined>,-0.35577,-0.27206,-0.35795,<undefined>
famous,devprop,F01,D94,A,106,1602,TRUE,s049,<undefined>,-0.14593,<undefined>,<undefined>,<undefined>,-0.27643,<undefined>,<undefined>,<undefined>,<undefined>,<undefined>,<undefined>,<undefined>,<undefined>,<undefined>,<undefined>,<undefined>,0.016667,0.24635,<undefined>,<undefined>,-0.15878,<undefined>,<undefined>,<undefined>,-0.046512,0.09235,-0.0046515,<undefined>,<undefined>,<undefined>,<undefined>,<undefined>,-0.28284,-0.3,-0.29093,<undefined>,0.048387,-0.17689,<undefined>,<undefined>,<undefined>,0.011438,-0.10809,<undefined>,-0.15523,0.0057191,-0.05,<undefined>,<undefined>,<undefined>,<undefined>,<undefined>,0.15574,<undefined>,<undefined>,<undefined>,-0.059869,-0.25551,-0.22528
famous,devprop,F01,D94,B,58,3715,TRUE,s050,<undefined>,<undefined>,<undefined>,<undefined>,<undefined>,<undefined>,<undefined>,<undefined>,<undefined>,<undefined>,<undefined>,<undefined>,<undefined>,<undefined>,<undefined>,<undefined>,-0.23219,<undefined>,-0.045523,<undefined>,-0.018246,<undefined>,<undefined>,<undefined>,-0.067222,<undefined>,0.15791,-0.025327,<undefined>,<undefined>,<undefined>,<undefined>,-0.23333,<undefined>,-0.3,-0.2899,-0.22647,<undefined>,0.089779,<undefined>,-0.18667,<undefined>,-0.24667,-0.27657,-0.20552,<undefined>,-0.2099,-0.29333,<undefined>,<undefined>,<undefined>,<undefined>,0.04,<undefined>,<undefined>,<undefined>,-0.24761,<undefined>,-0.048852,-0.21752
famous,devprop,F01,D94,C,111,1981,TRUE,s051,<undefined>,-0.05914,<undefined>,<undefined>,<undefined>,-0.2025,<undefined>,<undefined>,<undefined>,<undefined>,<undefined>,<undefined>,<undefined>,<undefined>,<undefined>,<undefined>,-0.018566,0.010723,<undefined>,<undefined>,0.0084151,-0.087648,<undefined>,<undefined>,-0.096576,0.13472,<undefined>,0.083383,<undefined>,<undefined>,<undefined>,<undefined>,-0.025,-0.32678,<undefined>,-0.25355,-0.23065,0.17537,<undefined>,<undefined>,0.1125,<undefined>,<undefined>,-0.12249,-0.13928,-0.19749,<undefined>,-0.1625,<undefined>,<undefined>,<undefined>,<undefined>,0.3375,0.33607,<undefined>,<undefined>,-0.21097,-0.016796,<undefined>,-0.18676
famous,devprop,F01,D94,D,134,860,FALSE,s052,<undefined>,<undefined>,<undefined>,<undefined>,<undefined>,<undefined>,<undefined>,<undefined>,<undefined>,<undefined>,<undefined>,<undefined>,<undefined>,<undefined>,<undefined>,<undefined>,<undefined>,<undefined>,<undefined>,<undefined>,<undefined>,<undefined>,<undefined>,<undefined>,<undefined>,<undefined>,<undefined>,<undefined>,<undefined>,<undefined>,<undefined>,<undefined>,<undefined>,<undefined>,<undefined>,<undefined>,<undefined>,<undefined>,<undefined>,<undefined>,<undefined>,<undefined>,<undefined>,<undefined>,<undefined>,<undefined>,<undefined>,<undefined>,<undefined>,<undefined>,<undefined>,<undefined>,<undefined>,<undefined>,<undefined>,<undefined>,<undefined>,<undefined>,<undefined>,<undefined>
famous,devprop,F01,D95,A,138,1732,TRUE,s053,<undefined>,-0.071579,<undefined>,<undefined>,<undefined>,-0.20692,<undefined>,<undefined>,<undefined>,<undefined>,<undefined>,<undefined>,<undefined>,<undefined>,<undefined>,<undefined>,<undefined>,0.016737,0.088889,<undefined>,<undefined>,-0.14747,<undefined>,<undefined>,<undefined>,0.063953,0.16531,0.061224,<undefined>,<undefined>,<undefined>,<undefined>,<undefined>,-0.34734,-0.34041,-0.35917,<undefined>,-0.080812,-0.11111,<undefined>,<undefined>,<undefined>,0.035925,-0.016316,<undefined>,0.093067,-0.014286,-0.11429,<undefined>,0.04,0.3375,<undefined>,<undefined>,<undefined>,<undefined>,<undefined>,<undefined>,-0.010921,-0.16753,-0.31429
famous,devprop,F01,D95,B,73,3004,TRUE,s054,<undefined>,<undefined>,<undefined>,<undefined>,<undefined>,<undefined>,<undefined>,<undefined>,<undefined>,<undefined>,<undefined>,<undefined>,<undefined>,<undefined>,<undefined>,<undefined>,-0.24988,<undefined>,-0.032787,<undefined>,-0.010158,<undefined>,<undefined>,<undefined>,0.053519,<undefined>,0.34334,-0.001165,<undefined>,<undefined>,<undefined>,<undefined>,-0.27049,<undefined>,-0.40164,-0.35246,-0.29765,<undefined>,0.04551,<undefined>,0.016393,<undefined>,-0.080561,-0.15574,-0.11475,<undefined>,-0.12295,-0.27869,0.15574,<undefined>,0.33607,<undefined>,<undefined>,<undefined>,<undefined>,<undefined>,-0.29882,<undefined>,-0.15502,-0.32224
famous,devprop,F01,D95,C,76,1728,FALSE,s055,<undefined>,<undefined>,<undefined>,<undefined>,<undefined>,<undefined>,<undefined>,<undefined>,<undefined>,<undefined>,<undefined>,<undefined>,<undefined>,<undefined>,<undefined>,<undefined>,<undefined>,<undefined>,<undefined>,<undefined>,<undefined>,<undefined>,<undefined>,<undefined>,<undefined>,<undefined>,<undefined>,<undefined>,<undefined>,<undefined>,<undefined>,<undefined>,<undefined>,<undefined>,<undefined>,<undefined>,<undefined>,<undefined>,<undefined>,<undefined>,<undefined>,<undefined>,<undefined>,<undefined>,<undefined>,<undefined>,<undefined>,<undefined>,<undefined>,<undefined>,<undefined>,<undefined>,<undefined>,<undefined>,<undefined>,<undefined>,<undefined>,<undefined>,<undefined>,<undefined>
famous,devprop,F01,D95,D,48,2133,FALSE,s056,<undefined>,<undefined>,<undefined>,<undefined>,<undefined>,<undefined>,<undefined>,<undefined>,<undefined>,<undefined>,<undefined>,<undefined>,<undefined>,<undefined>,<undefined>,<undefined>,<undefined>,<undefined>,<undefined>,<undefined>,<undefined>,<undefined>,<undefined>,<undefined>,<undefined>,<undefined>,<undefined>,<undefined>,<undefined>,<undefined>,<undefined>,<undefined>,<undefined>,<undefined>,<undefined>,<undefined>,<undefined>,<undefined>,<undefined>,<undefined>,<undefined>,<undefined>,<undefined>,<undefined>,<undefined>,<undefined>,<undefined>,<undefined>,<undefined>,<undefined>,<undefined>,<undefined>,<undefined>,<undefined>,<undefined>,<undefined>,<undefined>,<undefined>,<undefined>,<undefined>
famous,devprop,F01,D96,A,42,2774,TRUE,s057,<undefined>,-0.12366,<undefined>,<undefined>,<undefined>,-0.028275,<undefined>,<undefined>,<undefined>,<undefined>,<undefined>,<undefined>,<undefined>,<undefined>,<undefined>,<undefined>,<undefined>,-0.092571,-0.010416,<undefined>,<undefined>,0.020833,<undefined>,<undefined>,<undefined>,-0.21495,-0.10228,-0.044777,<undefined>,<undefined>,<undefined>,<undefined>,<undefined>,-0.11538,-0.15385,0.076923,<undefined>,0.04671,-0.019396,<undefined>,<undefined>,<undefined>,-0.11209,-0.092854,<undefined>,-0.25137,-0.32692,-0.35577,<undefined>,-0.24761,-0.21097,<undefined>,<undefined>,-0.29882,<undefined>,<undefined>,<undefined>,<undefined>,<undefined>,<undefined>
famous,devprop,F01,D96,B,85,3607,TRUE,s058,<undefined>,<undefined>,<undefined>,<undefined>,<undefined>,<undefined>,<undefined>,<undefined>,<undefined>,<undefined>,<undefined>,<undefined>,<undefined>,<undefined>,<undefined>,<undefined>,-0.17269,<undefined>,0.23046,<undefined>,0.090006,<undefined>,<undefined>,<undefined>,0.14118,<undefined>,0.039504,0.11282,<undefined>,<undefined>,<undefined>,<undefined>,-0.14706,<undefined>,-0.26471,-0.094327,-0.088235,<undefined>,-0.0040547,<undefined>,-0.051471,<undefined>,-0.11765,-0.13235,-0.1458,<undefined>,-0.16176,-0.27206,-0.059869,<undefined>,-0.016796,<undefined>,-0.010921,<undefined>,<undefined>,<undefined>,<undefined>,<undefined>,<undefined>,<undefined>
famous,devprop,F01,D96,C,5,4550,TRUE,s059,<undefined>,0.039479,<undefined>,<undefined>,<undefined>,-0.041515,<undefined>,<undefined>,<undefined>,<undefined>,<undefined>,<undefined>,<undefined>,<undefined>,<undefined>,<undefined>,-0.18084,-0.051136,<undefined>,<undefined>,0.25667,0.12783,<undefined>,<undefined>,0.057793,-0.062333,<undefined>,0.016238,<undefined>,<undefined>,<undefined>,<undefined>,-0.25,-0.27273,<undefined>,-0.14773,-0.17321,-0.1797,<undefined>,<undefined>,-0.1875,<undefined>,<undefined>,-0.21591,-0.33523,-0.28409,<undefined>,-0.35795,-0.25551,-0.048852,<undefined>,<undefined>,-0.16753,-0.15502,<undefined>,<undefined>,<undefined>,<undefined>,<undefined>,<undefined>
famous,devprop,F01,D96,D,24,1898,TRUE,s060,<undefined>,-0.2043,<undefined>,<undefined>,<undefined>,-0.16495,<undefined>,<undefined>,<undefined>,<undefined>,<undefined>,<undefined>,<undefined>,<undefined>,<undefined>,<undefined>,0.14083,0.014706,0.065087,<undefined>,-0.070316,-0.098958,<undefined>,<undefined>,-0.1678,-0.21512,-0.16964,<undefined>,<undefined>,<undefined>,<undefined>,<undefined>,0.014286,-0.042857,0.014286,<undefined>,-0.03125,0.11919,-0.027687,<undefined>,-0.07591,<undefined>,0.059594,<undefined>,-0.33508,-0.31793,-0.3612,<undefined>,-0.22528,-0.21752,-0.18676,<undefined>,-0.31429,-0.32224,<undefined>,<undefined>,<undefined>,<undefined>,<undefined>,<undefined>
famous,devprop,F02,D06,A,14,2132,TRUE,s001,<undefined>,<undefined>,<undefined>,<undefined>,<undefined>,-0.048178,-0.061309,-0.019199,<undefined>,0.026316,-0.14668,-0.11071,<undefined>,<undefined>,<undefined>,<undefined>,<undefined>,0,-0.20601,0.18647,<undefined>,0.11538,-0.11101,-0.13121,<undefined>,-0.10436,0.024688,-0.19061,<undefined>,-0.36759,<undefined>,-0.20562,<undefined>,-0.13158,0,-0.11803,<undefined>,<undefined>,<undefined>,<undefined>,<undefined>,0,0.035733,-0.07669,<undefined>,-0.13345,-0.20524,-0.16615,<undefined>,0.013158,0.11429,-0.26316,<undefined>,-0.15789,0.19737,0.0047767,<undefined>,-0.17538,-0.10347,<undefined>
famous,devprop,F02,D06,B,133,4154,FALSE,s002,<undefined>,<undefined>,<undefined>,<undefined>,<undefined>,<undefined>,<undefined>,<undefined>,<undefined>,<undefined>,<undefined>,<undefined>,<undefined>,<undefined>,<undefined>,<undefined>,<undefined>,<undefined>,<undefined>,<undefined>,<undefined>,<undefined>,<undefined>,<undefined>,<undefined>,<undefined>,<undefined>,<undefined>,<undefined>,<undefined>,<undefined>,<undefined>,<undefined>,<undefined>,<undefined>,<undefined>,<undefined>,<undefined>,<undefined>,<undefined>,<undefined>,<undefined>,<undefined>,<undefined>,<undefined>,<undefined>,<undefined>,<undefined>,<undefined>,<undefined>,<undefined>,<undefined>,<undefined>,<undefined>,<undefined>,<undefined>,<undefined>,<undefined>,<undefined>,<undefined>
famous,devprop,F02,D06,C,153,2272,FALSE,s003,<undefined>,<undefined>,<undefined>,<undefined>,<undefined>,<undefined>,<undefined>,<undefined>,<undefined>,<undefined>,<undefined>,<undefined>,<undefined>,<undefined>,<undefined>,<undefined>,<undefined>,<undefined>,<undefined>,<undefined>,<undefined>,<undefined>,<undefined>,<undefined>,<undefined>,<undefined>,<undefined>,<undefined>,<undefined>,<undefined>,<undefined>,<undefined>,<undefined>,<undefined>,<undefined>,<undefined>,<undefined>,<undefined>,<undefined>,<undefined>,<undefined>,<undefined>,<undefined>,<undefined>,<undefined>,<undefined>,<undefined>,<undefined>,<undefined>,<undefined>,<undefined>,<undefined>,<undefined>,<undefined>,<undefined>,<undefined>,<undefined>,<undefined>,<undefined>,<undefined>
famous,devprop,F02,D06,D,105,3955,FALSE,s004,<undefined>,<undefined>,<undefined>,<undefined>,<undefined>,<undefined>,<undefined>,<undefined>,<undefined>,<undefined>,<undefined>,<undefined>,<undefined>,<undefined>,<undefined>,<undefined>,<undefined>,<undefined>,<undefined>,<undefined>,<undefined>,<undefined>,<undefined>,<undefined>,<undefined>,<undefined>,<undefined>,<undefined>,<undefined>,<undefined>,<undefined>,<undefined>,<undefined>,<undefined>,<undefined>,<undefined>,<undefined>,<undefined>,<undefined>,<undefined>,<undefined>,<undefined>,<undefined>,<undefined>,<undefined>,<undefined>,<undefined>,<undefined>,<undefined>,<undefined>,<undefined>,<undefined>,<undefined>,<undefined>,<undefined>,<undefined>,<undefined>,<undefined>,<undefined>,<undefined>
famous,devprop,F02,D08,A,24,5031,TRUE,s005,<undefined>,<undefined>,<undefined>,<undefined>,<undefined>,<undefined>,<undefined>,<undefined>,<undefined>,-0.32008,0.15906,-0.23928,<undefined>,<undefined>,<undefined>,<undefined>,<undefined>,-0.23348,-0.25,-0.18377,<undefined>,-0.088542,-0.034518,-0.12469,<undefined>,0.028136,-0.11443,-0.1299,<undefined>,-0.32172,<undefined>,-0.22649,<undefined>,-0.26042,-0.29167,-0.020833,<undefined>,<undefined>,<undefined>,<undefined>,<undefined>,-0.25758,-0.10938,-0.26562,<undefined>,-0.3125,-0.16488,-0.20833,<undefined>,-0.29688,-0.26726,-0.32723,<undefined>,-0.25,-0.21071,-0.16399,<undefined>,0.19271,0.026195,<undefined>
famous,devprop,F02,D08,B,83,3317,TRUE,s006,-0.048178,<undefined>,<undefined>,<undefined>,<undefined>,<undefined>,<undefined>,<undefined>,0.0548,<undefined>,0.20192,-0.03383,<undefined>,<undefined>,<undefined>,<undefined>,0.029851,<undefined>,-0.23753,-0.02729,0.14663,<undefined>,0.050449,-0.15201,<undefined>,<undefined>,-0.055641,0.018399,0.29851,<undefined>,<undefined>,-0.072066,-0.23134,<undefined>,-0.18657,-0.058421,<undefined>,<undefined>,<undefined>,<undefined>,-0.1194,<undefined>,0.089552,-0.19403,-0.19637,<undefined>,-0.23859,-0.15672,-0.074627,<undefined>,-0.16908,-0.30597,0.062262,<undefined>,-0.22238,0.12196,0.14179,<undefined>,0.10021,<undefined>
famous,devprop,F02,D08,C,46,3839,TRUE,s007,-0.061309,<undefined>,<undefined>,<undefined>,<undefined>,<undefined>,<undefined>,<undefined>,-0.031148,-0.33868,<undefined>,-0.16522,<undefined>,<undefined>,<undefined>,<undefined>,-0.0069444,-0.15853,<undefined>,-0.22917,-0.083199,0.048611,<undefined>,-0.17655,<undefined>,0.13338,<undefined>,-0.18923,0.20139,-0.37537,<undefined>,-0.13531,-0.25,-0.15278,<undefined>,0.14941,<undefined>,<undefined>,<undefined>,<undefined>,-0.14583,-0.2002,<undefined>,-0.24306,-0.15278,-0.38889,<undefined>,-0.25575,-0.090278,-0.23928,<undefined>,-0.32142,-0.054364,-0.16667,<undefined>,0.1008,0.027778,0.34841,<undefined>,<undefined>
famous,devprop,F02,D08,D,14,6767,TRUE,s008,-0.019199,<undefined>,<undefined>,<undefined>,<undefined>,<undefined>,<undefined>,<undefined>,-0.16476,-0.23794,0.027845,<undefined>,<undefined>,<undefined>,<undefined>,<undefined>,-0.11667,-0.17778,-0.23333,<undefined>,-0.10895,-0.14698,-0.1491,<undefined>,<undefined>,0.031734,0.071433,<undefined>,-0.045071,-0.20253,<undefined>,<undefined>,-0.3,-0.22222,-0.27778,<undefined>,<undefined>,<undefined>,<undefined>,<undefined>,-0.2592,-0.15825,-0.15,<undefined>,-0.21841,-0.26667,-0.14444,<undefined>,-0.18333,-0.26111,-0.25825,<undefined>,-0.12127,-0.26667,-0.087936,<undefined>,-0.1027,0.020479,-0.12761,<undefined>
famous,devprop,F02,D13,A,52,1474,TRUE,s009,<undefined>,<undefined>,<undefined>,<undefined>,<undefined>,0.0548,-0.031148,-0.16476,<undefined>,<undefined>,<undefined>,<undefined>,<undefined>,<undefined>,<undefined>,<undefined>,<undefined>,0.06889,-0.050508,-0.097816,<undefined>,-0.095965,-0.16309,-0.16755,<undefined>,-0.2209,-0.0090909,-0.012523,<undefined>,-0.25556,<undefined>,0.375,<undefined>,-0.32143,-0.071429,-0.18968,<undefined>,<undefined>,<undefined>,<undefined>,<undefined>,-0.15406,0.26786,-0.01173,<undefined>,-0.10102,-0.071405,0.071429,<undefined>,-0.14233,-0.035714,-0.28825,<undefined>,0.28571,-0.13263,0.24359,<undefined>,-0.020437,0.031022,<undefined>
famous,devprop,F02,D13,B,5,1363,TRUE,s010,0.026316,<undefined>,<undefined>,<undefined>,-0.32008,<undefined>,-0.33868,-0.23794,<undefined>,<undefined>,<undefined>,<undefined>,<undefined>,<undefined>,<undefined>,<undefined>,-0.37289,<undefined>,-0.10714,0.10606,-0.093407,<undefined>,-0.17172,-0.16118,<undefined>,<undefined>,0.1,-0.020548,-0.2644,<undefined>,<undefined>,-0.10049,-0.32143,<undefined>,-0.42857,-0.41667,<undefined>,<undefined>,<undefined>,<undefined>,-0.12754,<undefined>,-0.401,-0.053571,-0.21682,<undefined>,-0.16904,-0.071429,-0.23468,<undefined>,-0.42857,0.14286,0.051033,<undefined>,0.12857,-0.050905,-0.2099,<undefined>,-0.2306,<undefined>
famous,devprop,F02,D13,C,72,5542,TRUE,s011,-0.14668,<undefined>,<undefined>,<undefined>,0.15906,0.20192,<undefined>,0.027845,<undefined>,<undefined>,<undefined>,<undefined>,<undefined>,<undefined>,<undefined>,<undefined>,-0.12194,-0.21561,<undefined>,-0.1913,0.063928,-0.11237,<undefined>,-0.022968,<undefined>,0.1464,<undefined>,-0.014276,0.24742,-0.33533,<undefined>,-0.24035,-0.31443,-0.24227,<undefined>,-0.059202,<undefined>,<undefined>,<undefined>,<undefined>,-0.23711,-0.24654,<undefined>,-0.26804,-0.15803,-0.32474,<undefined>,-0.21134,-0.17526,-0.30647,<undefined>,-0.36744,-0.12798,-0.25258,<undefined>,-0.011042,-0.028275,0.34021,<undefined>,<undefined>
famous,devprop,F02,D13,D,28,3906,TRUE,s012,-0.11071,<undefined>,<undefined>,<undefined>,-0.23928,-0.03383,-0.16522,<undefined>,<undefined>,<undefined>,<undefined>,<undefined>,<undefined>,<undefined>,<undefined>,<undefined>,-0.094169,-0.15789,-0.32895,<undefined>,0.079751,-0.071046,-0.0032678,<undefined>,<undefined>,-0.043446,0.098684,<undefined>,-0.10733,0.13177,<undefined>,<undefined>,-0.28947,-0.32669,-0.23684,<undefined>,<undefined>,<undefined>,<undefined>,<undefined>,-0.30921,-0.30582,-0.13364,<undefined>,-0.378,-0.40789,-0.28496,<undefined>,-0.23026,-0.15132,-0.17105,<undefined>,-0.14361,-0.34211,-0.088719,<undefined>,-0.17105,-0.092847,-0.13213,<undefined>
famous,devprop,F02,D14,A,83,1202,FALSE,s013,<undefined>,<undefined>,<undefined>,<undefined>,<undefined>,<undefined>,<undefined>,<undefined>,<undefined>,<undefined>,<undefined>,<undefined>,<undefined>,<undefined>,<undefined>,<undefined>,<undefined>,<undefined>,<undefined>,<undefined>,<undefined>,<undefined>,<undefined>,<undefined>,<undefined>,<undefined>,<undefined>,<undefined>,<undefined>,<undefined>,<undefined>,<undefined>,<undefined>,<undefined>,<undefined>,<undefined>,<undefined>,<undefined>,<undefined>,<undefined>,<undefined>,<undefined>,<undefined>,<undefined>,<undefined>,<undefined>,<undefined>,<undefined>,<undefined>,<undefined>,<undefined>,<undefined>,<undefined>,<undefined>,<undefined>,<undefined>,<undefined>,<undefined>,<undefined>,<undefined>
famous,devprop,F02,D14,B,54,2041,FALSE,s014,<undefined>,<undefined>,<undefined>,<undefined>,<undefined>,<undefined>,<undefined>,<undefined>,<undefined>,<undefined>,<undefined>,<undefined>,<undefined>,<undefined>,<undefined>,<undefined>,<undefined>,<undefined>,<undefined>,<undefined>,<undefined>,<undefined>,<undefined>,<undefined>,<undefined>,<undefined>,<undefined>,<undefined>,<undefined>,<undefined>,<undefined>,<undefined>,<undefined>,<undefined>,<undefined>,<undefined>,<undefined>,<undefined>,<undefined>,<undefined>,<undefined>,<undefined>,<undefined>,<undefined>,<undefined>,<undefined>,<undefined>,<undefined>,<undefined>,<undefined>,<undefined>,<undefined>,<undefined>,<undefined>,<undefined>,<undefined>,<undefined>,<undefined>,<undefined>,<undefined>
famous,devprop,F02,D14,C,126,1504,FALSE,s015,<undefined>,<undefined>,<undefined>,<undefined>,<undefined>,<undefined>,<undefined>,<undefined>,<undefined>,<undefined>,<undefined>,<undefined>,<undefined>,<undefined>,<undefined>,<undefined>,<undefined>,<undefined>,<undefined>,<undefined>,<undefined>,<undefined>,<undefined>,<undefined>,<undefined>,<undefined>,<undefined>,<undefined>,<undefined>,<undefined>,<undefined>,<undefined>,<undefined>,<undefined>,<undefined>,<undefined>,<undefined>,<undefined>,<undefined>,<undefined>,<undefined>,<undefined>,<undefined>,<undefined>,<undefined>,<undefined>,<undefined>,<undefined>,<undefined>,<undefined>,<undefined>,<undefined>,<undefined>,<undefined>,<undefined>,<undefined>,<undefined>,<undefined>,<undefined>,<undefined>
famous,devprop,F02,D14,D,44,1775,FALSE,s016,<undefined>,<undefined>,<undefined>,<undefined>,<undefined>,<undefined>,<undefined>,<undefined>,<undefined>,<undefined>,<undefined>,<undefined>,<undefined>,<undefined>,<undefined>,<undefined>,<undefined>,<undefined>,<undefined>,<undefined>,<undefined>,<undefined>,<undefined>,<undefined>,<undefined>,<undefined>,<undefined>,<undefined>,<undefined>,<undefined>,<undefined>,<undefined>,<undefined>,<undefined>,<undefined>,<undefined>,<undefined>,<undefined>,<undefined>,<undefined>,<undefined>,<undefined>,<undefined>,<undefined>,<undefined>,<undefined>,<undefined>,<undefined>,<undefined>,<undefined>,<undefined>,<undefined>,<undefined>,<undefined>,<undefined>,<undefined>,<undefined>,<undefined>,<undefined>,<undefined>
famous,devprop,F02,D15,A,1,1824,TRUE,s017,<undefined>,<undefined>,<undefined>,<undefined>,<undefined>,0.029851,-0.0069444,-0.11667,<undefined>,-0.37289,-0.12194,-0.094169,<undefined>,<undefined>,<undefined>,<undefined>,<undefined>,<undefined>,<undefined>,<undefined>,<undefined>,0.068879,-0.13021,-0.125,<undefined>,-0.13759,-0.036364,-0.18943,<undefined>,-0.19935,<undefined>,0.31034,<undefined>,0.051724,0.18966,0.090482,<undefined>,<undefined>,<undefined>,<undefined>,<undefined>,-0.28127,0.48276,-0.028566,<undefined>,-0.47042,-0.43856,-0.22414,<undefined>,0.16405,0.3335,-0.10886,<undefined>,0.12069,-0.14489,0.35897,<undefined>,-0.069004,-0.01306,<undefined>
famous,devprop,F02,D15,B,61,1467,TRUE,s018,0,<undefined>,<undefined>,<undefined>,-0.23348,<undefined>,-0.15853,-0.17778,0.06889,<undefined>,-0.21561,-0.15789,<undefined>,<undefined>,<undefined>,<undefined>,<undefined>,<undefined>,<undefined>,<undefined>,-0.18132,<undefined>,-0.11458,-0.21553,<undefined>,<undefined>,0.084938,-0.13014,-0.037014,<undefined>,<undefined>,-0.24074,0.15385,<undefined>,0.19231,-0.11111,<undefined>,<undefined>,<undefined>,<undefined>,-0.057692,<undefined>,0.040214,-0.035162,-0.070377,<undefined>,0.097631,0.22144,0.27913,<undefined>,-0.038462,-0.23077,0.17938,<undefined>,-0.014286,0.072901,-0.0019741,<undefined>,-0.077346,<undefined>
famous,devprop,F02,D15,C,63,954,TRUE,s019,-0.20601,<undefined>,<undefined>,<undefined>,-0.25,-0.23753,<undefined>,-0.23333,-0.050508,-0.10714,<undefined>,-0.32895,<undefined>,<undefined>,<undefined>,<undefined>,<undefined>,<undefined>,<undefined>,<undefined>,-0.35714,-0.10219,<undefined>,-0.27174,<undefined>,-0.32105,<undefined>,-0.25342,-0.31923,-0.56285,<undefined>,-0.39415,-0.03033,-0.3,<undefined>,-0.34681,<undefined>,<undefined>,<undefined>,<undefined>,-0.31876,0.083333,<undefined>,-0.18658,0.16378,0.4375,<undefined>,0.54545,-0.15371,-0.29318,<undefined>,-0.35635,0.046569,-0.28477,<undefined>,-0.20475,-0.085307,-0.22308,<undefined>,<undefined>
famous,devprop,F02,D15,D,25,1822,TRUE,s020,0.18647,<undefined>,<undefined>,<undefined>,-0.18377,-0.02729,-0.22917,<undefined>,-0.097816,0.10606,-0.1913,<undefined>,<undefined>,<undefined>,<undefined>,<undefined>,<undefined>,<undefined>,<undefined>,<undefined>,-0.18681,0.29707,-0.13452,<undefined>,<undefined>,-0.094737,0.083378,<undefined>,-0.16061,-0.22538,<undefined>,<undefined>,-0.13636,-0.18657,-0.040255,<undefined>,<undefined>,<undefined>,<undefined>,<undefined>,-0.26753,0.015152,-0.0043071,<undefined>,-0.15627,0.015152,-0.16667,<undefined>,-0.087863,0,-0.10606,<undefined>,0.15976,-0.28268,0.085714,<undefined>,-0.040849,-0.18152,-0.1402,<undefined>
famous,devprop,F02,D16,A,73,4744,TRUE,s021,<undefined>,<undefined>,<undefined>,<undefined>,<undefined>,0.14663,-0.083199,-0.10895,<undefined>,-0.093407,0.063928,0.079751,<undefined>,<undefined>,<undefined>,<undefined>,<undefined>,-0.18132,-0.35714,-0.18681,<undefined>,<undefined>,<undefined>,<undefined>,<undefined>,0.14045,0.023082,0.20879,<undefined>,-0.097016,<undefined>,-0.081475,<undefined>,-0.44505,-0.36813,-0.2033,<undefined>,<undefined>,<undefined>,<undefined>,<undefined>,-0.21429,-0.17582,-0.31224,<undefined>,-0.31319,-0.3022,-0.26923,<undefined>,-0.24176,-0.33516,-0.26923,<undefined>,-0.23626,-0.18948,-0.0091036,<undefined>,0.13187,0.079751,<undefined>
famous,devprop,F02,D16,B,149,2119,TRUE,s022,0.11538,<undefined>,<undefined>,<undefined>,-0.088542,<undefined>,0.048611,-0.14698,-0.095965,<undefined>,-0.11237,-0.071046,<undefined>,<undefined>,<undefined>,<undefined>,0.068879,<undefined>,-0.10219,0.29707,<undefined>,<undefined>,<undefined>,<undefined>,<undefined>,<undefined>,0.14545,-0.13229,0.039366,<undefined>,<undefined>,-0.29267,-0.038462,<undefined>,-0.012821,0.32051,<undefined>,<undefined>,<undefined>,<undefined>,-0.16447,<undefined>,0.04946,0.051282,-0.28972,<undefined>,-0.17911,-0.091566,0.076923,<undefined>,-0.055304,-0.12601,-0.021242,<undefined>,-0.0062216,0.01502,0.012821,<undefined>,0.0085786,<undefined>
famous,devprop,F02,D16,C,78,6950,TRUE,s023,-0.11101,<undefined>,<undefined>,<undefined>,-0.034518,0.050449,<undefined>,-0.1491,-0.16309,-0.17172,<undefined>,-0.0032678,<undefined>,<undefined>,<undefined>,<undefined>,-0.13021,-0.11458,<undefined>,-0.13452,<undefined>,<undefined>,<undefined>,<undefined>,<undefined>,-0.05193,<undefined>,-0.05193,-0.0052083,-0.22975,<undefined>,-0.20744,-0.3125,-0.26042,<undefined>,-0.056398,<undefined>,<undefined>,<undefined>,<undefined>,-0.26562,-0.1875,<undefined>,-0.30729,-0.25074,-0.3125,<undefined>,-0.21875,-0.20312,-0.19271,<undefined>,-0.22917,-0.1805,-0.27083,<undefined>,-0.05119,-0.17351,-0.025735,<undefined>,<undefined>
famous,devprop,F02,D16,D,55,7073,TRUE,s024,-0.13121,<undefined>,<undefined>,<undefined>,-0.12469,-0.15201,-0.17655,<undefined>,-0.16755,-0.16118,-0.022968,<undefined>,<undefined>,<undefined>,<undefined>,<undefined>,-0.125,-0.21553,-0.27174,<undefined>,<undefined>,<undefined>,<undefined>,<undefined>,<undefined>,0.083617,0.17485,<undefined>,0.015532,-0.15838,<undefined>,<undefined>,-0.31522,-0.3913,-0.31522,<undefined>,<undefined>,<undefined>,<undefined>,<undefined>,-0.22733,-0.19565,-0.17935,<undefined>,-0.28074,-0.31522,-0.21366,<undefined>,-0.16848,-0.22283,-0.28261,<undefined>,-0.18385,-0.23913,-0.027174,<undefined>,-0.16118,0.022672,0,<undefined>
famous,devprop,F02,D17,A,70,3607,FALSE,s025,<undefined>,<undefined>,<undefined>,<undefined>,<undefined>,<undefined>,<undefined>,<undefined>,<undefined>,<undefined>,<undefined>,<undefined>,<undefined>,<undefined>,<undefined>,<undefined>,<undefined>,<undefined>,<undefined>,<undefined>,<undefined>,<undefined>,<undefined>,<undefined>,<undefined>,<undefined>,<undefined>,<undefined>,<undefined>,<undefined>,<undefined>,<undefined>,<undefined>,<undefined>,<undefined>,<undefined>,<undefined>,<undefined>,<undefined>,<undefined>,<undefined>,<undefined>,<undefined>,<undefined>,<undefined>,<undefined>,<undefined>,<undefined>,<undefined>,<undefined>,<undefined>,<undefined>,<undefined>,<undefined>,<undefined>,<undefined>,<undefined>,<undefined>,<undefined>,<undefined>
famous,devprop,F02,D17,B,75,4797,TRUE,s026,-0.10436,<undefined>,<undefined>,<undefined>,0.028136,<undefined>,0.13338,0.031734,-0.2209,<undefined>,0.1464,-0.043446,<undefined>,<undefined>,<undefined>,<undefined>,-0.13759,<undefined>,-0.32105,-0.094737,0.14045,<undefined>,-0.05193,0.083617,<undefined>,<undefined>,<undefined>,<undefined>,0.06241,<undefined>,<undefined>,-0.23308,-0.31053,<undefined>,-0.28947,-0.12977,<undefined>,<undefined>,<undefined>,<undefined>,-0.24211,<undefined>,-0.14737,-0.27804,-0.26481,<undefined>,-0.21579,-0.29819,-0.16842,<undefined>,-0.30255,-0.24737,-0.17098,<undefined>,-0.11654,-0.0087203,-0.12797,<undefined>,0.10797,<undefined>
famous,devprop,F02,D17,C,17,2955,TRUE,s027,0.024688,<undefined>,<undefined>,<undefined>,-0.11443,-0.055641,<undefined>,0.071433,-0.0090909,0.1,<undefined>,0.098684,<undefined>,<undefined>,<undefined>,<undefined>,-0.036364,0.084938,<undefined>,0.083378,0.023082,0.14545,<undefined>,0.17485,<undefined>,<undefined>,<undefined>,<undefined>,0.098975,-0.090374,<undefined>,-0.062077,-0.19091,-0.31818,<undefined>,-0.13636,<undefined>,<undefined>,<undefined>,<undefined>,-0.080258,0.1,<undefined>,-0.16364,-0.1496,-0.11818,<undefined>,-0.15455,-0.054545,-0.036364,<undefined>,-0.14078,0.031952,-0.063636,<undefined>,0.092736,-0.058689,0.014744,<undefined>,<undefined>
famous,devprop,F02,D17,D,39,3815,TRUE,s028,-0.19061,<undefined>,<undefined>,<undefined>,-0.1299,0.018399,-0.18923,<undefined>,-0.012523,-0.020548,-0.014276,<undefined>,<undefined>,<undefined>,<undefined>,<undefined>,-0.18943,-0.13014,-0.25342,<undefined>,0.20879,-0.13229,-0.05193,<undefined>,<undefined>,<undefined>,<undefined>,<undefined>,-0.074167,0.043446,<undefined>,<undefined>,-0.33562,-0.43151,-0.33562,<undefined>,<undefined>,<undefined>,<undefined>,<undefined>,-0.16438,-0.19061,-0.19178,<undefined>,-0.17553,-0.26712,-0.15753,<undefined>,-0.23288,-0.23288,-0.29452,<undefined>,-0.12896,-0.18493,-0.066143,<undefined>,-0.10606,-0.040693,-0.052243,<undefined>
famous,devprop,F02,D18,A,5,2685,TRUE,s029,<undefined>,<undefined>,<undefined>,<undefined>,<undefined>,0.29851,0.20139,-0.045071,<undefined>,-0.2644,0.24742,-0.10733,<undefined>,<undefined>,<undefined>,<undefined>,<undefined>,-0.037014,-0.31923,-0.16061,<undefined>,0.039366,-0.0052083,0.015532,<undefined>,0.06241,0.098975,-0.074167,<undefined>,<undefined>,<undefined>,<undefined>,<undefined>,-0.23469,-0.091837,0.1277,<undefined>,<undefined>,<undefined>,<undefined>,<undefined>,-0.19823,0.16327,-0.15626,<undefined>,-0.46704,-0.33263,-0.20873,<undefined>,-0.1169,-0.18687,-0.29882,<undefined>,-0.010204,-0.16907,0.29767,<undefined>,0.52308,0.36429,<undefined>
famous,devprop,F02,D18,B,127,2205,TRUE,s030,-0.36759,<undefined>,<undefined>,<undefined>,-0.32172,<undefined>,-0.37537,-0.20253,-0.25556,<undefined>,-0.33533,0.13177,<undefined>,<undefined>,<undefined>,<undefined>,-0.19935,<undefined>,-0.56285,-0.22538,-0.097016,<undefined>,-0.22975,-0.15838,<undefined>,<undefined>,-0.090374,0.043446,<undefined>,<undefined>,<undefined>,<undefined>,-0.37745,<undefined>,-0.38284,-0.38981,<undefined>,<undefined>,<undefined>,<undefined>,-0.25365,<undefined>,-0.28823,-0.37397,-0.6165,<undefined>,-0.69237,-0.49777,-0.28666,<undefined>,-0.30855,-0.10158,-0.3219,<undefined>,-0.21078,-0.12887,-0.33459,<undefined>,-0.3265,<undefined>
famous,devprop,F02,D18,C,11,2229,FALSE,s031,<undefined>,<undefined>,<undefined>,<undefined>,<undefined>,<undefined>,<undefined>,<undefined>,<undefined>,<undefined>,<undefined>,<undefined>,<undefined>,<undefined>,<undefined>,<undefined>,<undefined>,<undefined>,<undefined>,<undefined>,<undefined>,<undefined>,<undefined>,<undefined>,<undefined>,<undefined>,<undefined>,<undefined>,<undefined>,<undefined>,<undefined>,<undefined>,<undefined>,<undefined>,<undefined>,<undefined>,<undefined>,<undefined>,<undefined>,<undefined>,<undefined>,<undefined>,<undefined>,<undefined>,<undefined>,<undefined>,<undefined>,<undefined>,<undefined>,<undefined>,<undefined>,<undefined>,<undefined>,<undefined>,<undefined>,<undefined>,<undefined>,<undefined>,<undefined>,<undefined>
famous,devprop,F02,D18,D,157,1387,TRUE,s032,-0.20562,<undefined>,<undefined>,<undefined>,-0.22649,-0.072066,-0.13531,<undefined>,0.375,-0.10049,-0.24035,<undefined>,<undefined>,<undefined>,<undefined>,<undefined>,0.31034,-0.24074,-0.39415,<undefined>,-0.081475,-0.29267,-0.20744,<undefined>,<undefined>,-0.23308,-0.062077,<undefined>,<undefined>,<undefined>,<undefined>,<undefined>,-0.055556,-0.31481,-0.092593,<undefined>,<undefined>,<undefined>,<undefined>,<undefined>,0.37672,-0.25236,0.14815,<undefined>,-0.29132,-0.45552,-0.56046,<undefined>,0.22222,0.0063546,0.0095318,<undefined>,0.049746,0.35185,-0.097549,<undefined>,0.10001,-0.13164,-0.1402,<undefined>
famous,devprop,F02,D90,A,106,716,TRUE,s033,<undefined>,<undefined>,<undefined>,<undefined>,<undefined>,-0.23134,-0.25,-0.3,<undefined>,-0.32143,-0.31443,-0.28947,<undefined>,<undefined>,<undefined>,<undefined>,<undefined>,0.15385,-0.03033,-0.13636,<undefined>,-0.038462,-0.3125,-0.31522,<undefined>,-0.31053,-0.19091,-0.33562,<undefined>,-0.37745,<undefined>,-0.055556,<undefined>,<undefined>,<undefined>,<undefined>,<undefined>,<undefined>,<undefined>,<undefined>,<undefined>,-0.25,-0.055556,-0.033333,<undefined>,-0.67752,-0.16904,0.045455,<undefined>,0.2619,0.15,-0.055556,<undefined>,0.25,-0.15714,-0.038462,<undefined>,-0.22308,-0.24286,<undefined>
famous,devprop,F02,D90,B,70,1143,TRUE,s034,-0.13158,<undefined>,<undefined>,<undefined>,-0.26042,<undefined>,-0.15278,-0.22222,-0.32143,<undefined>,-0.24227,-0.32669,<undefined>,<undefined>,<undefined>,<undefined>,0.051724,<undefined>,-0.3,-0.18657,-0.44505,<undefined>,-0.26042,-0.3913,<undefined>,<undefined>,-0.31818,-0.43151,-0.23469,<undefined>,<undefined>,-0.31481,<undefined>,<undefined>,<undefined>,<undefined>,<undefined>,<undefined>,<undefined>,<undefined>,-0.225,<undefined>,0.092593,-0.125,-0.42498,<undefined>,-0.36667,-0.31818,0.02381,<undefined>,0.25,-0.25,-0.2037,<undefined>,-0.35224,-0.21795,-0.22222,<undefined>,-0.21429,<undefined>
famous,devprop,F02,D90,C,45,822,TRUE,s035,0,<undefined>,<undefined>,<undefined>,-0.29167,-0.18657,<undefined>,-0.27778,-0.071429,-0.42857,<undefined>,-0.23684,<undefined>,<undefined>,<undefined>,<undefined>,0.18966,0.19231,<undefined>,-0.040255,-0.36813,-0.012821,<undefined>,-0.31522,<undefined>,-0.28947,<undefined>,-0.33562,-0.091837,-0.38284,<undefined>,-0.092593,<undefined>,<undefined>,<undefined>,<undefined>,<undefined>,<undefined>,<undefined>,<undefined>,0.078947,-0.25,<undefined>,0.033333,-0.30305,-0.7612,<undefined>,0.045455,0.30952,0.2898,<undefined>,-0.055556,0.12963,0.1875,<undefined>,-0.038462,-0.055556,-0.19231,<undefined>,<undefined>
famous,devprop,F02,D90,D,46,1946,TRUE,s036,-0.11803,<undefined>,<undefined>,<undefined>,-0.020833,-0.058421,0.14941,<undefined>,-0.18968,-0.41667,-0.059202,<undefined>,<undefined>,<undefined>,<undefined>,<undefined>,0.090482,-0.11111,-0.34681,<undefined>,-0.2033,0.32051,-0.056398,<undefined>,<undefined>,-0.12977,-0.13636,<undefined>,0.1277,-0.38981,<undefined>,<undefined>,<undefined>,<undefined>,<undefined>,<undefined>,<undefined>,<undefined>,<undefined>,<undefined>,-0.18056,-0.33333,0.18056,<undefined>,-0.48768,-0.59681,-0.43015,<undefined>,0.125,0.07421,0.12738,<undefined>,-0.15278,-0.11111,-0.26586,<undefined>,0.032544,0.034729,-0.024685,<undefined>
famous,devprop,F02,D91,A,78,3942,FALSE,s037,<undefined>,<undefined>,<undefined>,<undefined>,<undefined>,<undefined>,<undefined>,<undefined>,<undefined>,<undefined>,<undefined>,<undefined>,<undefined>,<undefined>,<undefined>,<undefined>,<undefined>,<undefined>,<undefined>,<undefined>,<undefined>,<undefined>,<undefined>,<undefined>,<undefined>,<undefined>,<undefined>,<undefined>,<undefined>,<undefined>,<undefined>,<undefined>,<undefined>,<undefined>,<undefined>,<undefined>,<undefined>,<undefined>,<undefined>,<undefined>,<undefined>,<undefined>,<undefined>,<undefined>,<undefined>,<undefined>,<undefined>,<undefined>,<undefined>,<undefined>,<undefined>,<undefined>,<undefined>,<undefined>,<undefined>,<undefined>,<undefined>,<undefined>,<undefined>,<undefined>
famous,devprop,F02,D91,B,117,2818,FALSE,s038,<undefined>,<undefined>,<undefined>,<undefined>,<undefined>,<undefined>,<undefined>,<undefined>,<undefined>,<undefined>,<undefined>,<undefined>,<undefined>,<undefined>,<undefined>,<undefined>,<undefined>,<undefined>,<undefined>,<undefined>,<undefined>,<undefined>,<undefined>,<undefined>,<undefined>,<undefined>,<undefined>,<undefined>,<undefined>,<undefined>,<undefined>,<undefined>,<undefined>,<undefined>,<undefined>,<undefined>,<undefined>,<undefined>,<undefined>,<undefined>,<undefined>,<undefined>,<undefined>,<undefined>,<undefined>,<undefined>,<undefined>,<undefined>,<undefined>,<undefined>,<undefined>,<undefined>,<undefined>,<undefined>,<undefined>,<undefined>,<undefined>,<undefined>,<undefined>,<undefined>
famous,devprop,F02,D91,C,123,1752,FALSE,s039,<undefined>,<undefined>,<undefined>,<undefined>,<undefined>,<undefined>,<undefined>,<undefined>,<undefined>,<undefined>,<undefined>,<undefined>,<undefined>,<undefined>,<undefined>,<undefined>,<undefined>,<undefined>,<undefined>,<undefined>,<undefined>,<undefined>,<undefined>,<undefined>,<undefined>,<undefined>,<undefined>,<undefined>,<undefined>,<undefined>,<undefined>,<undefined>,<undefined>,<undefined>,<undefined>,<undefined>,<undefined>,<undefined>,<undefined>,<undefined>,<undefined>,<undefined>,<undefined>,<undefined>,<undefined>,<undefined>,<undefined>,<undefined>,<undefined>,<undefined>,<undefined>,<undefined>,<undefined>,<undefined>,<undefined>,<undefined>,<undefined>,<undefined>,<undefined>,<undefined>
famous,devprop,F02,D91,D,126,2266,FALSE,s040,<undefined>,<undefined>,<undefined>,<undefined>,<undefined>,<undefined>,<undefined>,<undefined>,<undefined>,<undefined>,<undefined>,<undefined>,<undefined>,<undefined>,<undefined>,<undefined>,<undefined>,<undefined>,<undefined>,<undefined>,<undefined>,<undefined>,<undefined>,<undefined>,<undefined>,<undefined>,<undefined>,<undefined>,<undefined>,<undefined>,<undefined>,<undefined>,<undefined>,<undefined>,<undefined>,<undefined>,<undefined>,<undefined>,<undefined>,<undefined>,<undefined>,<undefined>,<undefined>,<undefined>,<undefined>,<undefined>,<undefined>,<undefined>,<undefined>,<undefined>,<undefined>,<undefined>,<undefined>,<undefined>,<undefined>,<undefined>,<undefined>,<undefined>,<undefined>,<undefined>
famous,devprop,F02,D92,A,69,1106,TRUE,s041,<undefined>,<undefined>,<undefined>,<undefined>,<undefined>,-0.1194,-0.14583,-0.2592,<undefined>,-0.12754,-0.23711,-0.30921,<undefined>,<undefined>,<undefined>,<undefined>,<undefined>,-0.057692,-0.31876,-0.26753,<undefined>,-0.16447,-0.26562,-0.22733,<undefined>,-0.24211,-0.080258,-0.16438,<undefined>,-0.25365,<undefined>,0.37672,<undefined>,-0.225,0.078947,-0.18056,<undefined>,<undefined>,<undefined>,<undefined>,<undefined>,<undefined>,<undefined>,<undefined>,<undefined>,-0.36236,-0.38807,-0.25323,<undefined>,-0.10679,0.083579,-0.23155,<undefined>,0.68873,-0.17143,0.15385,<undefined>,-0.14219,-0.15,<undefined>
famous,devprop,F02,D92,B,41,1433,TRUE,s042,0,<undefined>,<undefined>,<undefined>,-0.25758,<undefined>,-0.2002,-0.15825,-0.15406,<undefined>,-0.24654,-0.30582,<undefined>,<undefined>,<undefined>,<undefined>,-0.28127,<undefined>,0.083333,0.015152,-0.21429,<undefined>,-0.1875,-0.19565,<undefined>,<undefined>,0.1,-0.19061,-0.19823,<undefined>,<undefined>,-0.25236,-0.25,<undefined>,-0.25,-0.33333,<undefined>,<undefined>,<undefined>,<undefined>,<undefined>,<undefined>,<undefined>,<undefined>,0.035714,<undefined>,0.21716,0.083333,-0.16605,<undefined>,-0.41667,-0.36785,0.018519,<undefined>,0.12164,-0.16591,-0.11506,<undefined>,-0.18571,<undefined>
famous,devprop,F02,D92,C,28,1530,TRUE,s043,0.035733,<undefined>,<undefined>,<undefined>,-0.10938,0.089552,<undefined>,-0.15,0.26786,-0.401,<undefined>,-0.13364,<undefined>,<undefined>,<undefined>,<undefined>,0.48276,0.040214,<undefined>,-0.0043071,-0.17582,0.04946,<undefined>,-0.17935,<undefined>,-0.14737,<undefined>,-0.19178,0.16327,-0.28823,<undefined>,0.14815,-0.055556,0.092593,<undefined>,0.18056,<undefined>,<undefined>,<undefined>,<undefined>,<undefined>,<undefined>,<undefined>,<undefined>,-0.22602,-0.36347,<undefined>,0.018519,0.33333,-0.0089867,<undefined>,-0.25871,0.3307,0.16667,<undefined>,0.30769,0.29167,-0.046154,<undefined>,<undefined>
famous,devprop,F02,D92,D,110,932,TRUE,s044,-0.07669,<undefined>,<undefined>,<undefined>,-0.26562,-0.19403,-0.24306,<undefined>,-0.01173,-0.053571,-0.26804,<undefined>,<undefined>,<undefined>,<undefined>,<undefined>,-0.028566,-0.035162,-0.18658,<undefined>,-0.31224,0.051282,-0.30729,<undefined>,<undefined>,-0.27804,-0.16364,<undefined>,-0.15626,-0.37397,<undefined>,<undefined>,-0.033333,-0.125,0.033333,<undefined>,<undefined>,<undefined>,<undefined>,<undefined>,<undefined>,<undefined>,<undefined>,<undefined>,-0.1903,-0.15997,-0.33284,<undefined>,0.14286,-0.20203,-0.125,<undefined>,0.16984,0.3027,-0.099579,<undefined>,-0.032135,-0.21538,-0.23571,<undefined>
famous,devprop,F02,D93,A,7,1514,TRUE,s045,<undefined>,<undefined>,<undefined>,<undefined>,<undefined>,-0.19637,-0.15278,-0.21841,<undefined>,-0.21682,-0.15803,-0.378,<undefined>,<undefined>,<undefined>,<undefined>,<undefined>,-0.070377,0.16378,-0.15627,<undefined>,-0.28972,-0.25074,-0.28074,<undefined>,-0.26481,-0.1496,-0.17553,<undefined>,-0.6165,<undefined>,-0.29132,<undefined>,-0.42498,-0.30305,-0.48768,<undefined>,<undefined>,<undefined>,<undefined>,<undefined>,0.035714,-0.22602,-0.1903,<undefined>,<undefined>,<undefined>,<undefined>,<undefined>,-0.44284,-0.33263,-0.53825,<undefined>,-0.11581,-0.14734,-0.087167,<undefined>,-0.12922,-0.091632,<undefined>
famous,devprop,F02,D93,B,93,884,TRUE,s046,-0.13345,<undefined>,<undefined>,<undefined>,-0.3125,<undefined>,-0.38889,-0.26667,-0.10102,<undefined>,-0.32474,-0.40789,<undefined>,<undefined>,<undefined>,<undefined>,-0.47042,<undefined>,0.4375,0.015152,-0.31319,<undefined>,-0.3125,-0.31522,<undefined>,<undefined>,-0.11818,-0.26712,-0.46704,<undefined>,<undefined>,-0.45552,-0.67752,<undefined>,-0.7612,-0.59681,<undefined>,<undefined>,<undefined>,<undefined>,-0.36236,<undefined>,-0.36347,-0.15997,<undefined>,<undefined>,<undefined>,<undefined>,-0.44281,<undefined>,-0.73284,-0.8238,0.040214,<undefined>,0.014286,-0.3586,-0.24721,<undefined>,-0.34286,<undefined>
famous,devprop,F02,D93,C,24,1691,TRUE,s047,-0.20524,<undefined>,<undefined>,<undefined>,-0.16488,-0.23859,<undefined>,-0.14444,-0.071405,-0.16904,<undefined>,-0.28496,<undefined>,<undefined>,<undefined>,<undefined>,-0.43856,0.097631,<undefined>,-0.16667,-0.3022,-0.17911,<undefined>,-0.21366,<undefined>,-0.21579,<undefined>,-0.15753,-0.33263,-0.69237,<undefined>,-0.56046,-0.16904,-0.36667,<undefined>,-0.43015,<undefined>,<undefined>,<undefined>,<undefined>,-0.38807,0.21716,<undefined>,-0.33284,<undefined>,<undefined>,<undefined>,<undefined>,-0.24093,-0.30523,<undefined>,-0.34714,-0.09379,-0.3576,<undefined>,-0.20217,-0.18409,-0.15735,<undefined>,<undefined>
famous,devprop,F02,D93,D,87,1738,TRUE,s048,-0.16615,<undefined>,<undefined>,<undefined>,-0.20833,-0.15672,-0.25575,<undefined>,0.071429,-0.071429,-0.21134,<undefined>,<undefined>,<undefined>,<undefined>,<undefined>,-0.22414,0.22144,0.54545,<undefined>,-0.26923,-0.091566,-0.21875,<undefined>,<undefined>,-0.29819,-0.15455,<undefined>,-0.20873,-0.49777,<undefined>,<undefined>,0.045455,-0.31818,0.045455,<undefined>,<undefined>,<undefined>,<undefined>,<undefined>,-0.25323,0.083333,0.018519,<undefined>,<undefined>,<undefined>,<undefined>,<undefined>,-0.052584,-0.0071297,-0.011029,<undefined>,0.12963,-0.21168,-0.1,<undefined>,-0.080542,-0.17802,-0.18571,<undefined>
famous,devprop,F02,D94,A,16,1018,TRUE,s049,<undefined>,<undefined>,<undefined>,<undefined>,<undefined>,-0.074627,-0.090278,-0.18333,<undefined>,-0.23468,-0.17526,-0.23026,<undefined>,<undefined>,<undefined>,<undefined>,<undefined>,0.27913,-0.15371,-0.087863,<undefined>,0.076923,-0.20312,-0.16848,<undefined>,-0.16842,-0.054545,-0.23288,<undefined>,-0.28666,<undefined>,0.22222,<undefined>,0.02381,0.30952,0.125,<undefined>,<undefined>,<undefined>,<undefined>,<undefined>,-0.16605,0.33333,0.14286,<undefined>,-0.44281,-0.24093,-0.052584,<undefined>,<undefined>,<undefined>,<undefined>,<undefined>,0.59524,-0.087745,0.30769,<undefined>,-0.015385,-0.05,<undefined>
famous,devprop,F02,D94,B,45,1007,TRUE,s050,0.013158,<undefined>,<undefined>,<undefined>,-0.29688,<undefined>,-0.23928,-0.26111,-0.14233,<undefined>,-0.30647,-0.15132,<undefined>,<undefined>,<undefined>,<undefined>,0.16405,<undefined>,-0.29318,0,-0.24176,<undefined>,-0.19271,-0.22283,<undefined>,<undefined>,-0.036364,-0.23288,-0.1169,<undefined>,<undefined>,0.0063546,0.2619,<undefined>,0.2898,0.07421,<undefined>,<undefined>,<undefined>,<undefined>,-0.10679,<undefined>,-0.0089867,-0.20203,-0.44284,<undefined>,-0.30523,-0.0071297,<undefined>,<undefined>,<undefined>,<undefined>,-0.039669,<undefined>,0.11429,0.10696,-0.12023,<undefined>,-0.23183,<undefined>
famous,devprop,F02,D94,C,139,1052,TRUE,s051,0.11429,<undefined>,<undefined>,<undefined>,-0.26726,-0.16908,<undefined>,-0.25825,-0.035714,-0.42857,<undefined>,-0.17105,<undefined>,<undefined>,<undefined>,<undefined>,0.3335,-0.038462,<undefined>,-0.10606,-0.33516,-0.055304,<undefined>,-0.28261,<undefined>,-0.30255,<undefined>,-0.29452,-0.18687,-0.30855,<undefined>,0.0095318,0.15,0.25,<undefined>,0.12738,<undefined>,<undefined>,<undefined>,<undefined>,0.083579,-0.41667,<undefined>,-0.125,-0.33263,-0.73284,<undefined>,-0.011029,<undefined>,<undefined>,<undefined>,<undefined>,0.077251,-0.11213,<undefined>,0.012821,-0.034518,-0.19076,<undefined>,<undefined>
famous,devprop,F02,D94,D,118,857,TRUE,s052,-0.26316,<undefined>,<undefined>,<undefined>,-0.32723,-0.30597,-0.32142,<undefined>,-0.28825,0.14286,-0.36744,<undefined>,<undefined>,<undefined>,<undefined>,<undefined>,-0.10886,-0.23077,-0.35635,<undefined>,-0.26923,-0.12601,-0.22917,<undefined>,<undefined>,-0.24737,-0.14078,<undefined>,-0.29882,-0.10158,<undefined>,<undefined>,-0.055556,-0.25,-0.055556,<undefined>,<undefined>,<undefined>,<undefined>,<undefined>,-0.23155,-0.36785,-0.25871,<undefined>,-0.53825,-0.8238,-0.34714,<undefined>,<undefined>,<undefined>,<undefined>,<undefined>,-0.26507,-0.12854,-0.073459,<undefined>,-0.22617,-0.30219,-0.32468,<undefined>
famous,devprop,F02,D95,A,103,1311,TRUE,s053,<undefined>,<undefined>,<undefined>,<undefined>,<undefined>,0.062262,-0.054364,-0.12127,<undefined>,0.051033,-0.12798,-0.14361,<undefined>,<undefined>,<undefined>,<undefined>,<undefined>,0.17938,0.046569,0.15976,<undefined>,-0.021242,-0.1805,-0.18385,<undefined>,-0.17098,0.031952,-0.12896,<undefined>,-0.3219,<undefined>,0.049746,<undefined>,-0.2037,0.12963,-0.15278,<undefined>,<undefined>,<undefined>,<undefined>,<undefined>,0.018519,0.3307,0.16984,<undefined>,0.040214,-0.09379,0.12963,<undefined>,-0.039669,0.077251,-0.26507,<undefined>,<undefined>,<undefined>,<undefined>,<undefined>,-0.052526,-0.073669,<undefined>
famous,devprop,F02,D95,B,108,778,TRUE,s054,-0.15789,<undefined>,<undefined>,<undefined>,-0.25,<undefined>,-0.16667,-0.26667,0.28571,<undefined>,-0.25258,-0.34211,<undefined>,<undefined>,<undefined>,<undefined>,0.12069,<undefined>,-0.28477,-0.28268,-0.23626,<undefined>,-0.27083,-0.23913,<undefined>,<undefined>,-0.063636,-0.18493,-0.010204,<undefined>,<undefined>,0.35185,0.25,<undefined>,0.1875,-0.11111,<undefined>,<undefined>,<undefined>,<undefined>,0.68873,<undefined>,0.16667,0.3027,-0.11581,<undefined>,-0.3576,-0.21168,0.59524,<undefined>,-0.11213,-0.12854,<undefined>,<undefined>,<undefined>,<undefined>,0.16667,<undefined>,-0.15714,<undefined>
famous,devprop,F02,D95,C,130,1703,TRUE,s055,0.19737,<undefined>,<undefined>,<undefined>,-0.21071,-0.22238,<undefined>,-0.087936,-0.13263,0.12857,<undefined>,-0.088719,<undefined>,<undefined>,<undefined>,<undefined>,-0.14489,-0.014286,<undefined>,0.085714,-0.18948,-0.0062216,<undefined>,-0.027174,<undefined>,-0.11654,<undefined>,-0.066143,-0.16907,-0.21078,<undefined>,-0.097549,-0.15714,-0.35224,<undefined>,-0.26586,<undefined>,<undefined>,<undefined>,<undefined>,-0.17143,0.12164,<undefined>,-0.099579,-0.14734,0.014286,<undefined>,-0.1,-0.087745,0.11429,<undefined>,-0.073459,<undefined>,<undefined>,<undefined>,<undefined>,-0.11465,-0.2112,<undefined>,<undefined>
famous,devprop,F02,D95,D,69,2340,TRUE,s056,0.0047767,<undefined>,<undefined>,<undefined>,-0.16399,0.12196,0.1008,<undefined>,0.24359,-0.050905,-0.011042,<undefined>,<undefined>,<undefined>,<undefined>,<undefined>,0.35897,0.072901,-0.20475,<undefined>,-0.0091036,0.01502,-0.05119,<undefined>,<undefined>,-0.0087203,0.092736,<undefined>,0.29767,-0.12887,<undefined>,<undefined>,-0.038462,-0.21795,-0.038462,<undefined>,<undefined>,<undefined>,<undefined>,<undefined>,0.15385,-0.16591,0.30769,<undefined>,-0.087167,-0.3586,-0.20217,<undefined>,0.30769,0.10696,0.012821,<undefined>,<undefined>,<undefined>,<undefined>,<undefined>,0.26301,0.22066,0.1347,<undefined>
famous,devprop,F02,D96,A,116,1915,TRUE,s057,<undefined>,<undefined>,<undefined>,<undefined>,<undefined>,0.14179,0.027778,-0.1027,<undefined>,-0.2099,-0.028275,-0.17105,<undefined>,<undefined>,<undefined>,<undefined>,<undefined>,-0.0019741,-0.085307,-0.040849,<undefined>,0.012821,-0.17351,-0.16118,<undefined>,-0.12797,-0.058689,-0.10606,<undefined>,-0.33459,<undefined>,0.10001,<undefined>,-0.22222,-0.055556,0.032544,<undefined>,<undefined>,<undefined>,<undefined>,<undefined>,-0.11506,0.29167,-0.032135,<undefined>,-0.24721,-0.18409,-0.080542,<undefined>,-0.12023,-0.034518,-0.22617,<undefined>,0.16667,-0.11465,0.26301,<undefined>,<undefined>,<undefined>,<undefined>
famous,devprop,F02,D96,B,96,3371,TRUE,s058,-0.17538,<undefined>,<undefined>,<undefined>,0.19271,<undefined>,0.34841,0.020479,-0.020437,<undefined>,0.34021,-0.092847,<undefined>,<undefined>,<undefined>,<undefined>,-0.069004,<undefined>,-0.22308,-0.18152,0.13187,<undefined>,-0.025735,0.022672,<undefined>,<undefined>,0.014744,-0.040693,0.52308,<undefined>,<undefined>,-0.13164,-0.22308,<undefined>,-0.19231,0.034729,<undefined>,<undefined>,<undefined>,<undefined>,-0.14219,<undefined>,-0.046154,-0.21538,-0.12922,<undefined>,-0.15735,-0.17802,-0.015385,<undefined>,-0.19076,-0.30219,-0.052526,<undefined>,-0.2112,0.22066,<undefined>,<undefined>,<undefined>,<undefined>
famous,devprop,F02,D96,C,74,3707,TRUE,s059,-0.10347,<undefined>,<undefined>,<undefined>,0.026195,0.10021,<undefined>,-0.12761,0.031022,-0.2306,<undefined>,-0.13213,<undefined>,<undefined>,<undefined>,<undefined>,-0.01306,-0.077346,<undefined>,-0.1402,0.079751,0.0085786,<undefined>,0,<undefined>,0.10797,<undefined>,-0.052243,0.36429,-0.3265,<undefined>,-0.1402,-0.24286,-0.21429,<undefined>,-0.024685,<undefined>,<undefined>,<undefined>,<undefined>,-0.15,-0.18571,<undefined>,-0.23571,-0.091632,-0.34286,<undefined>,-0.18571,-0.05,-0.23183,<undefined>,-0.32468,-0.073669,-0.15714,<undefined>,0.1347,<undefined>,<undefined>,<undefined>,<undefined>
famous,devprop,F02,D96,D,38,4737,FALSE,s060,<undefined>,<undefined>,<undefined>,<undefined>,<undefined>,<undefined>,<undefined>,<undefined>,<undefined>,<undefined>,<undefined>,<undefined>,<undefined>,<undefined>,<undefined>,<undefined>,<undefined>,<undefined>,<undefined>,<undefined>,<undefined>,<undefined>,<undefined>,<undefined>,<undefined>,<undefined>,<undefined>,<undefined>,<undefined>,<undefined>,<undefined>,<undefined>,<undefined>,<undefined>,<undefined>,<undefined>,<undefined>,<undefined>,<undefined>,<undefined>,<undefined>,<undefined>,<undefined>,<undefined>,<undefined>,<undefined>,<undefined>,<undefined>,<undefined>,<undefined>,<undefined>,<undefined>,<undefined>,<undefined>,<undefined>,<undefined>,<undefined>,<undefined>,<undefined>,<undefined>
famous,devprop,F03,D06,A,13,1554,TRUE,s001,<undefined>,<undefined>,<undefined>,<undefined>,<undefined>,0.52941,0.11588,0.17347,<undefined>,-0.2051,-0.22998,0.33784,<undefined>,-0.011425,<undefined>,<undefined>,<undefined>,-0.23821,-0.2165,<undefined>,<undefined>,0.17331,-0.026189,0.20833,<undefined>,-0.26042,-0.094937,<undefined>,<undefined>,0.41429,0.46154,0.41374,<undefined>,-0.058312,0.14583,0.14583,<undefined>,0.39583,0.34287,<undefined>,<undefined>,-0.14818,0.41371,0.19465,<undefined>,-0.16963,-0.2982,-0.12143,<undefined>,-0.31781,-0.026756,0.087521,<undefined>,0.17085,-0.22091,0.41371,<undefined>,0.21053,-0.13333,-0.038462
famous,devprop,F03,D06,B,136,1368,TRUE,s002,<undefined>,<undefined>,<undefined>,<undefined>,-0.30412,<undefined>,0.076593,-0.05102,0.097157,<undefined>,-0.20181,0.013514,-0.11972,<undefined>,<undefined>,<undefined>,0.041667,<undefined>,-0.14444,<undefined>,-0.097222,<undefined>,-0.14815,0.31818,-0.16304,<undefined>,-0.13291,<undefined>,-0.032289,<undefined>,0.38462,0.15385,-0.51493,<undefined>,0.022727,-0.15909,0.09804,<undefined>,0.11166,<undefined>,0.22727,<undefined>,0.22727,0.34091,-0.28376,<undefined>,-0.20455,-0.20778,0.16109,<undefined>,0.075981,0.22727,0.14806,<undefined>,0.058579,0.090909,0.1087,<undefined>,-0.24444,-0.14615
famous,devprop,F03,D06,C,72,2099,TRUE,s003,<undefined>,<undefined>,<undefined>,<undefined>,-0.10736,0.24286,<undefined>,0.02451,0.016737,-0.11632,<undefined>,0.14713,-0.0034175,0.13846,<undefined>,<undefined>,0.057563,0.16024,<undefined>,<undefined>,-0.091265,0.07482,<undefined>,0.1,-0.091299,-0.28973,<undefined>,<undefined>,-0.097549,0.057143,<undefined>,0.042857,-0.31429,-0.16653,<undefined>,0.11429,-0.037535,0.23838,<undefined>,<undefined>,0.071429,-0.22815,<undefined>,-0.085714,-0.3306,-0.23999,<undefined>,-0.31632,0.085714,-0.0093836,<undefined>,0.057563,-0.085714,-0.061624,<undefined>,-0.054692,-0.057143,0.29438,<undefined>,0.0026396
famous,devprop,F03,D06,D,30,1435,TRUE,s004,<undefined>,<undefined>,<undefined>,<undefined>,-0.26023,0.18404,0.07421,<undefined>,0.35029,-0.11882,-0.23944,<undefined>,-0.098592,-0.083296,<undefined>,<undefined>,-0.055351,-0.24708,-0.2092,<undefined>,-0.10417,0.2391,-0.069308,<undefined>,-0.18385,-0.21354,-0.10127,<undefined>,-0.23103,0.31429,0.36538,<undefined>,-0.42857,0.047619,0.14286,<undefined>,0.040399,0.19048,0.27197,<undefined>,0.54762,0.17145,0.36754,<undefined>,-0.29657,-0.11426,-0.047619,<undefined>,0.19261,-0.14672,-0.014938,<undefined>,0.072129,0.22917,0.025736,<undefined>,0.43478,0.092105,-0.19444,<undefined>
famous,devprop,F03,D08,A,38,5788,TRUE,s005,<undefined>,-0.30412,-0.10736,-0.26023,<undefined>,<undefined>,<undefined>,<undefined>,<undefined>,-0.36833,-0.18466,-0.070396,<undefined>,-0.039165,<undefined>,<undefined>,<undefined>,-0.27128,-0.21296,<undefined>,<undefined>,-0.0094249,0.0072269,-0.32474,<undefined>,-0.019431,-0.029892,<undefined>,<undefined>,-0.12371,-0.26289,-0.22165,<undefined>,-0.37187,-0.35052,-0.29897,<undefined>,-0.24742,-0.18557,<undefined>,<undefined>,-0.37599,-0.28601,-0.32813,<undefined>,-0.3891,-0.43122,-0.36082,<undefined>,-0.32474,-0.28866,-0.32474,<undefined>,-0.24654,-0.29278,-0.24227,<undefined>,-0.11325,-0.056398,-0.061552
famous,devprop,F03,D08,B,96,1683,TRUE,s006,0.52941,<undefined>,0.24286,0.18404,<undefined>,<undefined>,<undefined>,<undefined>,0.45588,<undefined>,-0.18389,0.60811,-0.09255,<undefined>,<undefined>,<undefined>,0,<undefined>,-0.22347,<undefined>,0.055556,<undefined>,0.11111,0,-0.14208,<undefined>,0.06962,<undefined>,-0.065527,<undefined>,0.32353,0.26262,-0.59285,<undefined>,-0.044118,0.073529,-0.060481,<undefined>,0.31892,<undefined>,0.20588,<undefined>,0.20379,-0.0096596,-0.19579,<undefined>,-0.35755,-0.25,0.0004329,<undefined>,-0.15376,-0.014273,-0.21972,<undefined>,-0.23652,0.22816,0.26514,<undefined>,-0.044444,0.1
famous,devprop,F03,D08,C,155,1801,TRUE,s007,0.11588,0.076593,<undefined>,0.07421,<undefined>,<undefined>,<undefined>,<undefined>,0.07421,-0.097222,<undefined>,0.21853,-0.15956,-0.0050527,<undefined>,<undefined>,-0.27778,-0.2857,<undefined>,<undefined>,-0.031148,0.087978,<undefined>,-0.20118,-0.20466,-0.29851,<undefined>,<undefined>,-0.069444,0.25238,<undefined>,0.099605,-0.55317,-0.30991,<undefined>,-0.20078,-0.16823,-0.043641,<undefined>,<undefined>,-0.083333,-0.31706,<undefined>,-0.069444,-0.34484,-0.24523,<undefined>,-0.19206,0.17382,-0.067061,<undefined>,-0.00674,-0.20554,0.055556,<undefined>,0.083333,0.07421,0.037991,<undefined>,-0.16636
famous,devprop,F03,D08,D,112,2439,TRUE,s008,0.17347,-0.05102,0.02451,<undefined>,<undefined>,<undefined>,<undefined>,<undefined>,0.061224,-0.19503,-0.068592,<undefined>,-0.028169,0.036048,<undefined>,<undefined>,0.15306,-0.29067,-0.29912,<undefined>,0.036118,0.14811,-0.046296,<undefined>,-0.091299,-0.17188,0.071079,<undefined>,-0.12245,0.22449,0.19388,<undefined>,-0.53907,-0.27521,-0.18367,<undefined>,-0.17812,-0.098539,-0.059173,<undefined>,-0.030612,-0.26646,0.029162,<undefined>,-0.2551,-0.32273,-0.3758,<undefined>,-0.016907,-0.2481,-0.18367,<undefined>,-0.23789,-0.067927,-0.17987,<undefined>,0.056273,0.04812,-0.077614,<undefined>
famous,devprop,F03,D13,A,55,1401,TRUE,s009,<undefined>,0.097157,0.016737,0.35029,<undefined>,0.45588,0.07421,0.061224,<undefined>,<undefined>,<undefined>,<undefined>,<undefined>,0.076923,<undefined>,<undefined>,<undefined>,-0.2965,-0.21841,<undefined>,<undefined>,0.22368,0.0092593,0.18,<undefined>,-0.23438,-0.088608,<undefined>,<undefined>,0.35959,0.41045,0.51923,<undefined>,0.12402,0.12,0.15716,<undefined>,0.24,0.40741,<undefined>,<undefined>,-0.12912,0.41029,0.16686,<undefined>,-0.046274,-0.24,0.04,<undefined>,-0.23255,-0.092548,0.097157,<undefined>,0.22686,-0.19951,0.19373,<undefined>,0.14474,-0.18333,-0.015385
famous,devprop,F03,D13,B,20,1244,TRUE,s010,-0.2051,<undefined>,-0.11632,-0.11882,-0.36833,<undefined>,-0.097222,-0.19503,<undefined>,<undefined>,<undefined>,<undefined>,-0.21327,<undefined>,<undefined>,<undefined>,-0.23539,<undefined>,-0.17397,<undefined>,-0.24643,<undefined>,-0.12037,-0.18284,-0.2472,<undefined>,-0.18987,<undefined>,0.16,<undefined>,0.016497,0.10935,-0.44971,<undefined>,-0.39314,-0.59314,0.089165,<undefined>,-0.1968,<undefined>,-0.32912,<undefined>,0.033726,-0.099411,-0.053137,<undefined>,-0.2,-0.28,0.21281,<undefined>,0.12686,0.02,0.27029,<undefined>,0.28905,-0.002254,0.08402,<undefined>,-0.25539,-0.39054
famous,devprop,F03,D13,C,14,3713,TRUE,s011,-0.22998,-0.20181,<undefined>,-0.23944,-0.18466,-0.18389,<undefined>,-0.068592,<undefined>,<undefined>,<undefined>,<undefined>,-0.079259,0.076671,<undefined>,<undefined>,-0.21589,-0.093759,<undefined>,<undefined>,-0.15792,-0.16739,<undefined>,-0.20423,0.044731,-0.09255,<undefined>,<undefined>,-0.1666,-0.075842,<undefined>,-0.05513,-0.46479,-0.25352,<undefined>,-0.4507,-0.14085,-0.32394,<undefined>,<undefined>,-0.3169,-0.16197,<undefined>,-0.26519,-0.27465,-0.26056,<undefined>,-0.30986,-0.056338,-0.091549,<undefined>,-0.19014,-0.14085,-0.06338,<undefined>,-0.17364,-0.12434,-0.16981,<undefined>,-0.35712
famous,devprop,F03,D13,D,63,1986,TRUE,s012,0.33784,0.013514,0.14713,<undefined>,-0.070396,0.60811,0.21853,<undefined>,<undefined>,<undefined>,<undefined>,<undefined>,0.056338,0.2244,<undefined>,<undefined>,-0.17568,-0.31154,-0.18475,<undefined>,0.14485,0.37519,0.17461,<undefined>,-0.097666,-0.17872,0.050633,<undefined>,-0.24245,0.51159,0.28378,<undefined>,-0.46602,-0.078365,-0.081081,<undefined>,-0.028948,0.054054,0.36063,<undefined>,0.14865,-0.16832,0.17375,<undefined>,-0.3444,-0.19343,-0.32432,<undefined>,-0.019674,-0.2243,-0.19303,<undefined>,-0.2135,0.054452,-0.188,<undefined>,0.12394,0.25,-0.0055556,<undefined>
famous,devprop,F03,D14,A,17,4354,TRUE,s013,<undefined>,-0.11972,-0.0034175,-0.098592,<undefined>,-0.09255,-0.15956,-0.028169,<undefined>,-0.21327,-0.079259,0.056338,<undefined>,<undefined>,<undefined>,<undefined>,<undefined>,-0.028169,-0.097176,<undefined>,<undefined>,0.085715,0.27023,-0.19014,<undefined>,-0.20892,0.12785,<undefined>,<undefined>,0.084507,-0.091549,-0.077465,<undefined>,-0.26861,-0.19718,-0.056338,<undefined>,-0.16901,-0.056338,<undefined>,<undefined>,-0.27465,-0.12314,-0.21127,<undefined>,-0.24406,-0.40845,-0.30161,<undefined>,-0.17947,-0.15493,-0.20423,<undefined>,-0.1338,-0.1513,-0.20764,<undefined>,-0.0070423,0.12968,0.071838
famous,devprop,F03,D14,B,2,3288,TRUE,s014,-0.011425,<undefined>,0.13846,-0.083296,-0.039165,<undefined>,-0.0050527,0.036048,0.076923,<undefined>,0.076671,0.2244,<undefined>,<undefined>,<undefined>,<undefined>,-0.24329,<undefined>,0.088575,<undefined>,0.035131,<undefined>,0.33077,-0.19231,0.018169,<undefined>,0.151,<undefined>,-0.15758,<undefined>,-0.053846,0.016704,-0.32308,<undefined>,-0.16923,-0.061538,-0.13582,<undefined>,-0.02549,<undefined>,-0.13077,<undefined>,-0.084615,-0.2,-0.3,<undefined>,-0.33846,-0.2,-0.087029,<undefined>,-0.10769,-0.084615,-0.22922,<undefined>,-0.1112,-0.1345,-0.034502,<undefined>,0.1335,0.0090121
famous,devprop,F03,D14,C,108,2056,FALSE,s015,<undefined>,<undefined>,<undefined>,<undefined>,<undefined>,<undefined>,<undefined>,<undefined>,<undefined>,<undefined>,<undefined>,<undefined>,<undefined>,<undefined>,<undefined>,<undefined>,<undefined>,<undefined>,<undefined>,<undefined>,<undefined>,<undefined>,<undefined>,<undefined>,<undefined>,<undefined>,<undefined>,<undefined>,<undefined>,<undefined>,<undefined>,<undefined>,<undefined>,<undefined>,<undefined>,<undefined>,<undefined>,<undefined>,<undefined>,<undefined>,<undefined>,<undefined>,<undefined>,<undefined>,<undefined>,<undefined>,<undefined>,<undefined>,<undefined>,<undefined>,<undefined>,<undefined>,<undefined>,<undefined>,<undefined>,<undefined>,<undefined>,<undefined>,<undefined>,<undefined>
famous,devprop,F03,D14,D,49,3379,FALSE,s016,<undefined>,<undefined>,<undefined>,<undefined>,<undefined>,<undefined>,<undefined>,<undefined>,<undefined>,<undefined>,<undefined>,<undefined>,<undefined>,<undefined>,<undefined>,<undefined>,<undefined>,<undefined>,<undefined>,<undefined>,<undefined>,<undefined>,<undefined>,<undefined>,<undefined>,<undefined>,<undefined>,<undefined>,<undefined>,<undefined>,<undefined>,<undefined>,<undefined>,<undefined>,<undefined>,<undefined>,<undefined>,<undefined>,<undefined>,<undefined>,<undefined>,<undefined>,<undefined>,<undefined>,<undefined>,<undefined>,<undefined>,<undefined>,<undefined>,<undefined>,<undefined>,<undefined>,<undefined>,<undefined>,<undefined>,<undefined>,<undefined>,<undefined>,<undefined>,<undefined>
famous,devprop,F03,D15,A,96,1500,TRUE,s017,<undefined>,0.041667,0.057563,-0.055351,<undefined>,0,-0.27778,0.15306,<undefined>,-0.23539,-0.21589,-0.17568,<undefined>,-0.24329,<undefined>,<undefined>,<undefined>,<undefined>,<undefined>,<undefined>,<undefined>,0.10526,-0.24787,0.16667,<undefined>,-0.16667,-0.20886,<undefined>,<undefined>,0.1,0.11538,0.076923,<undefined>,-0.11428,-0.10417,-0.27083,<undefined>,-0.13154,-0.27778,<undefined>,<undefined>,-0.054738,0.1393,-0.079759,<undefined>,-0.21844,-0.22917,-0.27379,<undefined>,-0.24581,0.04228,-0.20118,<undefined>,0.090482,-0.11618,0.10774,<undefined>,-0.10262,-0.32111,-0.34615
famous,devprop,F03,D15,B,27,2034,TRUE,s018,-0.23821,<undefined>,0.16024,-0.24708,-0.27128,<undefined>,-0.2857,-0.29067,-0.2965,<undefined>,-0.093759,-0.31154,-0.028169,<undefined>,<undefined>,<undefined>,<undefined>,<undefined>,<undefined>,<undefined>,-0.30773,<undefined>,-0.015069,-0.17568,-0.18835,<undefined>,-0.17504,<undefined>,-0.12586,<undefined>,-0.2494,-0.14785,-0.081081,<undefined>,-0.16872,-0.10731,-0.06717,<undefined>,-0.344,<undefined>,-0.31737,<undefined>,-0.10115,-0.27027,-0.047098,<undefined>,-0.2973,-0.21158,-0.14633,<undefined>,-0.054054,-0.15984,-0.027027,<undefined>,0.067568,-0.1413,-0.18184,<undefined>,-0.14428,-0.20592
famous,devprop,F03,D15,C,64,2528,TRUE,s019,-0.2165,-0.14444,<undefined>,-0.2092,-0.21296,-0.22347,<undefined>,-0.29912,-0.21841,-0.17397,<undefined>,-0.18475,-0.097176,0.088575,<undefined>,<undefined>,<undefined>,<undefined>,<undefined>,<undefined>,-0.23591,-0.1384,<undefined>,-0.3,-0.0035699,-0.22649,<undefined>,<undefined>,-0.12032,-0.14412,<undefined>,-0.13143,-0.2,-0.15556,<undefined>,-0.014597,0.079684,0,<undefined>,<undefined>,-0.3,-0.04793,<undefined>,-0.28889,-0.17206,-0.12222,<undefined>,-0.22222,-0.25904,-0.20349,<undefined>,-0.011111,-0.022222,-0.033333,<undefined>,-0.12761,-0.15556,0.12985,<undefined>,-0.1046
famous,devprop,F03,D15,D,12,1446,FALSE,s020,<undefined>,<undefined>,<undefined>,<undefined>,<undefined>,<undefined>,<undefined>,<undefined>,<undefined>,<undefined>,<undefined>,<undefined>,<undefined>,<undefined>,<undefined>,<undefined>,<undefined>,<undefined>,<undefined>,<undefined>,<undefined>,<undefined>,<undefined>,<undefined>,<undefined>,<undefined>,<undefined>,<undefined>,<undefined>,<undefined>,<undefined>,<undefined>,<undefined>,<undefined>,<undefined>,<undefined>,<undefined>,<undefined>,<undefined>,<undefined>,<undefined>,<undefined>,<undefined>,<undefined>,<undefined>,<undefined>,<undefined>,<undefined>,<undefined>,<undefined>,<undefined>,<undefined>,<undefined>,<undefined>,<undefined>,<undefined>,<undefined>,<undefined>,<undefined>,<undefined>
famous,devprop,F03,D16,A,5,3597,TRUE,s021,<undefined>,-0.097222,-0.091265,-0.10417,<undefined>,0.055556,-0.031148,0.036118,<undefined>,-0.24643,-0.15792,0.14485,<undefined>,0.035131,<undefined>,<undefined>,<undefined>,-0.30773,-0.23591,<undefined>,<undefined>,<undefined>,<undefined>,<undefined>,<undefined>,0.058185,0.17089,<undefined>,<undefined>,0.17361,0,-0.069444,<undefined>,-0.3125,-0.27083,-0.22917,<undefined>,-0.21528,-0.090278,<undefined>,<undefined>,-0.27778,-0.13889,-0.21528,<undefined>,-0.33909,-0.40972,-0.38194,<undefined>,-0.29167,-0.28472,-0.24762,<undefined>,-0.125,-0.17678,-0.19444,<undefined>,-0.00337,-0.058252,-0.055351
famous,devprop,F03,D16,B,79,2365,TRUE,s022,0.17331,<undefined>,0.07482,0.2391,-0.0094249,<undefined>,0.087978,0.14811,0.22368,<undefined>,-0.16739,0.37519,0.085715,<undefined>,<undefined>,<undefined>,0.10526,<undefined>,-0.1384,<undefined>,<undefined>,<undefined>,<undefined>,<undefined>,-0.015372,<undefined>,0.064377,<undefined>,-0.21201,<undefined>,0.26316,0.26129,-0.53947,<undefined>,-0.092105,0.013158,-0.095846,<undefined>,0.2391,<undefined>,0.13158,<undefined>,0.15602,0.039474,-0.30863,<undefined>,-0.32895,-0.27632,0.09475,<undefined>,-0.098491,-0.028186,-0.11578,<undefined>,-0.0010955,0.019931,0.053019,<undefined>,-0.040632,0.069231
