fame,ability,face,subj,angle,trial,rt,acc,sq,s001,s002,s003,s004,s005,s006,s007,s008,s009,s010,s011,s012,s013,s014,s015,s016,s017,s018,s019,s020,s021,s022,s023,s024,s025,s026,s027,s028,s029,s030,s031,s032,s033,s034,s035,s036,s037,s038,s039,s040,s041,s042,s043,s044,s045,s046,s047,s048,s049,s050,s051,s052,s053,s054,s055,s056,s057,s058,s059,s060
famous,super,F01,S01,A,52,916,TRUE,s001,<undefined>,<undefined>,<undefined>,<undefined>,<undefined>,0.16692,0.18421,0.36842,<undefined>,0.30302,0.12332,0.39474,<undefined>,-0.23607,-0.27064,0.43674,<undefined>,-0.40596,-0.30598,0.040851,<undefined>,0.68421,-0.073658,0.5,<undefined>,0.26767,0.60526,0.68421,<undefined>,0.66241,1,0.12821,<undefined>,0.070692,0.14964,-0.14357,<undefined>,-0.22363,-0.37511,-0.15601,<undefined>,0.2985,0.15867,0.11507,<undefined>,-0.27515,0.035346,0.56166,<undefined>,0.42105,-0.22514,0.20132,<undefined>,0.28947,0.55263,0.31579,<undefined>,0.12332,0.73913,0.25444
famous,super,F01,S01,B,36,860,TRUE,s002,<undefined>,<undefined>,<undefined>,<undefined>,-0.027778,<undefined>,0.055556,0.02383,0.055556,<undefined>,-0.10635,0.042076,-0.16585,<undefined>,-0.32298,-0.035364,-0.22222,<undefined>,-0.24918,-0.015639,-0.041258,<undefined>,-0.22222,0.16667,0,<undefined>,0.055556,0.083333,0.13889,<undefined>,0.13158,-0.012821,-0.29126,<undefined>,-0.21269,-0.13889,-0.21844,<undefined>,-0.33664,-0.2879,0.027778,<undefined>,-0.11111,-0.16667,0.055556,<undefined>,-0.22617,0.055556,-0.18968,<undefined>,-0.30474,0.13636,-0.083333,<undefined>,0.019064,-0.1619,-0.21429,<undefined>,0.021739,0.020425
famous,super,F01,S01,C,83,1176,TRUE,s003,<undefined>,<undefined>,<undefined>,<undefined>,0.1875,0.3125,<undefined>,0.1875,0.25,0.3125,<undefined>,0.20833,-0.22917,-0.055351,<undefined>,0.39583,0.031557,-0.16248,<undefined>,0.025021,0.3125,0.42024,<undefined>,0.29167,0.20833,0.20833,<undefined>,0.4375,0.52083,0.5625,<undefined>,0.089744,-0.16667,0.020833,<undefined>,0.017872,0.067301,-0.25515,<undefined>,0.20937,0.27083,0.25,<undefined>,0.19822,0.33333,-0.017259,<undefined>,0.34048,-0.16963,0.22917,<undefined>,0.10478,0.10417,0.125,<undefined>,0.14583,-0.21487,0.16013,<undefined>,0.059539
famous,super,F01,S01,D,89,1316,TRUE,s004,<undefined>,<undefined>,<undefined>,<undefined>,0.11111,0.074074,0.018519,<undefined>,0.12064,0.22222,-0.024328,<undefined>,-0.2746,0,-0.076706,<undefined>,-0.08887,-0.082516,0.018519,<undefined>,0.11111,0.33333,-0.042846,<undefined>,0.068265,0.040214,0.27778,<undefined>,0.44444,0.31799,0.55556,<undefined>,-0.18201,0.14815,0.077251,<undefined>,0.047659,-0.28423,-0.15078,<undefined>,0.12382,0.16667,0.12064,<undefined>,0.2254,-0.10793,-0.12328,<undefined>,-0.095225,0.14815,-0.18519,<undefined>,-0.0089867,0.055556,0.24074,<undefined>,-0.14443,-0.061365,0.48148,<undefined>
famous,super,F01,S02,A,94,516,TRUE,s005,<undefined>,-0.027778,0.1875,0.11111,<undefined>,<undefined>,<undefined>,<undefined>,<undefined>,0.66045,0.39781,0.60714,<undefined>,-0.12745,-0.27393,0.28571,<undefined>,-0.41513,-0.25508,0.0081701,<undefined>,0.47059,0.16789,0.67857,<undefined>,0.70833,0.67857,0.6,<undefined>,0.36842,0.36842,-0.076923,<undefined>,0.058824,0.52145,0.0077312,<undefined>,-0.27586,-0.40494,-0.18241,<undefined>,0.75715,0.37553,0.20358,<undefined>,-0.2598,0.34048,0.53125,<undefined>,0.76923,-0.25782,0.11364,<undefined>,0.46429,0.53125,0.61538,<undefined>,0,0.21739,0.14286
famous,super,F01,S02,B,83,649,TRUE,s006,0.16692,<undefined>,0.3125,0.074074,<undefined>,<undefined>,<undefined>,<undefined>,0.40511,<undefined>,0.46154,0.25,-0.24943,<undefined>,0,0.2381,0.36327,<undefined>,0.24492,0.12313,0.70551,<undefined>,0.46814,0.37553,0.40511,<undefined>,0.40511,0.34477,0.24539,<undefined>,0.16692,-0.12821,0.11538,<undefined>,0.5,0.058258,-0.089869,<undefined>,-0.12606,0.086822,0.34477,<undefined>,0.60714,0.46875,0.40511,<undefined>,0.54506,0.46875,-0.099964,<undefined>,-0.11496,0.14026,0.38462,<undefined>,0.25536,0.23077,-0.17414,<undefined>,0.050938,0.12313
famous,super,F01,S02,C,57,587,TRUE,s007,0.18421,0.055556,<undefined>,0.018519,<undefined>,<undefined>,<undefined>,<undefined>,0.42857,0.5,<undefined>,0.3694,0.038462,-0.15271,<undefined>,0.11905,0.25613,-0.24372,<undefined>,0.02381,0.43627,0.44118,<undefined>,0.57143,0.42857,0.43096,<undefined>,0.36667,0.26471,0.18421,<undefined>,-0.16667,0.33333,0.029412,<undefined>,-0.057126,-0.19404,-0.15517,<undefined>,-0.19504,0.3,0.58333,<undefined>,0.375,0.42857,-0.28033,<undefined>,0.3125,-0.27854,0.42308,<undefined>,0.22727,0.42308,0.14286,<undefined>,0.26923,-0.17005,-0.078947,<undefined>,0.11905
famous,super,F01,S02,D,19,739,TRUE,s008,0.36842,0.02383,0.1875,<undefined>,<undefined>,<undefined>,<undefined>,<undefined>,0.43333,0.33333,0.2,<undefined>,0.26667,-0.2,0.064736,<undefined>,0.017157,-0.55086,-0.43807,<undefined>,0.37239,0.52941,-0.010457,<undefined>,0.36667,0.33905,0.56667,<undefined>,0.47059,0.29399,0.36842,<undefined>,0.033333,-0.14201,0.20572,<undefined>,-0.37439,-0.19506,-0.53538,<undefined>,0.33333,0.36667,0.20572,<undefined>,0.56667,-0.4473,0.072386,<undefined>,-0.54853,0.4781,-0.2102,<undefined>,0.26667,0.5,0.78125,<undefined>,-0.33672,-0.025541,0.3913,<undefined>
famous,super,F01,S03,A,151,812,TRUE,s009,<undefined>,0.055556,0.25,0.12064,<undefined>,0.40511,0.42857,0.43333,<undefined>,<undefined>,<undefined>,<undefined>,<undefined>,-0.22549,-0.0092267,0.24218,<undefined>,-0.13388,-0.23669,0.22246,<undefined>,0.55882,0.38165,0.75613,<undefined>,0.5,0.69695,0.61716,<undefined>,0.44737,0.38197,-0.070324,<undefined>,-0.029412,0.33981,-0.099964,<undefined>,-0.13497,-0.26332,-0.17251,<undefined>,0.54184,0.69695,0.45895,<undefined>,-0.24372,0.22654,0.51072,<undefined>,0.60714,-0.19795,0.18182,<undefined>,0.35714,0.47411,0.46429,<undefined>,0.23684,0.22858,0.16667
famous,super,F01,S03,B,104,769,TRUE,s010,0.30302,<undefined>,0.3125,0.22222,0.66045,<undefined>,0.5,0.33333,<undefined>,<undefined>,<undefined>,<undefined>,-0.23077,<undefined>,-0.014273,0.36123,0.20308,<undefined>,0.060225,-0.067344,0.53846,<undefined>,0.44947,0.54797,0.46429,<undefined>,0.58981,0.51716,0.39749,<undefined>,0.30302,-0.051282,0.083522,<undefined>,0.57692,0.34729,-0.099979,<undefined>,-0.21302,-0.012632,0.43905,<undefined>,0.69083,0.47947,0.58981,<undefined>,0.19231,0.65625,-0.1173,<undefined>,-0.29727,0.12144,0.38462,<undefined>,0.41697,0.46154,-0.18569,<undefined>,0.16336,0.055789
famous,super,F01,S03,C,112,806,TRUE,s011,0.12332,-0.10635,<undefined>,-0.024328,0.39781,0.46154,<undefined>,0.2,<undefined>,<undefined>,<undefined>,<undefined>,-0.076923,-0.29449,<undefined>,0.063959,0.57756,0.037532,<undefined>,0.2381,0.5066,0.26975,<undefined>,0.40511,0.75,0.42308,<undefined>,0.28954,0.19666,0.21053,<undefined>,-0.19633,0.34615,0,<undefined>,-0.095588,-0.0065356,-0.083249,<undefined>,-0.14395,0.21144,0.35935,<undefined>,0.53125,0.44695,-0.1973,<undefined>,0.2402,0.042893,0.32089,<undefined>,0.068182,0.61538,0.10714,<undefined>,0.23077,-0.039449,0.15789,<undefined>,0.047619
famous,super,F01,S03,D,5,848,TRUE,s012,0.39474,0.042076,0.20833,<undefined>,0.60714,0.25,0.3694,<undefined>,<undefined>,<undefined>,<undefined>,<undefined>,-0.035714,0.07248,-0.092416,<undefined>,0.02451,-0.5455,-0.40406,<undefined>,0.46429,0.5,-0.0050763,<undefined>,0.42857,0.42857,0.71429,<undefined>,0.5,0.34211,0.39474,<undefined>,0.041842,0.025231,0.29797,<undefined>,-0.37081,-0.30147,-0.49563,<undefined>,0.43333,0.5,0.22654,<undefined>,0.64286,-0.39017,0.14286,<undefined>,-0.58158,0.53571,-0.35714,<undefined>,0.32143,0.28571,0.4375,<undefined>,-0.35236,-0.13158,0.23913,<undefined>
famous,super,F01,S04,A,46,836,TRUE,s013,<undefined>,-0.16585,-0.22917,-0.2746,<undefined>,-0.24943,0.038462,0.26667,<undefined>,-0.23077,-0.076923,-0.035714,<undefined>,<undefined>,<undefined>,<undefined>,<undefined>,-0.59375,-0.76733,-0.28571,<undefined>,0,-0.19231,0.035714,<undefined>,-0.14725,-0.065301,-0.094281,<undefined>,-0.15789,-0.1797,-0.11318,<undefined>,-0.47477,-0.34615,-0.69231,<undefined>,-0.27586,-0.56522,-0.4901,<undefined>,-0.19231,-0.10714,-0.15625,<undefined>,-0.59375,-0.34615,-0.11964,<undefined>,-0.095588,-0.19048,0.022727,<undefined>,0.36327,0.13036,0.27583,<undefined>,-0.21427,-0.061488,-0.2381
famous,super,F01,S04,B,110,890,TRUE,s014,-0.23607,<undefined>,-0.055351,0,-0.12745,<undefined>,-0.15271,-0.2,-0.22549,<undefined>,-0.29449,0.07248,<undefined>,<undefined>,<undefined>,<undefined>,-0.32143,<undefined>,0.14898,-0.12652,-0.24943,<undefined>,-0.038462,-0.17139,-0.26733,<undefined>,-0.14181,-0.16569,-0.20502,<undefined>,-0.23607,-0.12821,-0.11538,<undefined>,0.006599,0.53846,-0.10417,<undefined>,-0.10497,-0.096154,-0.24379,<undefined>,0.077556,-0.020527,-0.14181,<undefined>,-0.44721,0.016085,0.14898,<undefined>,-0.13469,-0.060383,-0.33955,<undefined>,-0.21875,-0.29449,-0.13469,<undefined>,-0.22794,-0.14624
famous,super,F01,S04,C,65,1044,TRUE,s015,-0.27064,-0.32298,<undefined>,-0.076706,-0.27393,0,<undefined>,0.064736,-0.0092267,-0.014273,<undefined>,-0.092416,<undefined>,<undefined>,<undefined>,<undefined>,0.14706,0.20588,<undefined>,0.047619,-0.19074,-0.17056,<undefined>,-0.21006,0.073962,-0.25461,<undefined>,-0.25375,-0.24366,-0.16164,<undefined>,-0.18131,-0.20588,-0.13192,<undefined>,-0.058824,0.10417,-0.2069,<undefined>,-0.057692,-0.39158,-0.10251,<undefined>,0.38235,-0.1756,-0.088235,<undefined>,-0.057958,0.14706,-0.31257,<undefined>,-0.19675,0.068916,0.025231,<undefined>,-0.063004,0.1313,-0.1526,<undefined>,-0.33333
famous,super,F01,S04,D,39,1399,TRUE,s016,0.43674,-0.035364,0.39583,<undefined>,0.28571,0.2381,0.11905,<undefined>,0.24218,0.36123,0.063959,<undefined>,<undefined>,<undefined>,<undefined>,<undefined>,0.00070089,-0.35574,-0.18978,<undefined>,0.2381,0.39729,0.020425,<undefined>,0.17484,0.19456,0.40476,<undefined>,0.45647,0.2381,0.43674,<undefined>,-0.13877,0.02451,0.16667,<undefined>,-0.30116,-0.38176,-0.42295,<undefined>,0.21837,0.35714,0.23063,<undefined>,0.35714,-0.27346,-0.015639,<undefined>,-0.33602,0.28571,-0.46802,<undefined>,0.10341,0.11905,0.2619,<undefined>,-0.41562,-0.19048,0.31181,<undefined>
famous,super,F01,S07,A,21,863,TRUE,s017,<undefined>,-0.22222,0.031557,-0.08887,<undefined>,0.36327,0.25613,0.017157,<undefined>,0.20308,0.57756,0.02451,<undefined>,-0.32143,0.14706,0.00070089,<undefined>,<undefined>,<undefined>,<undefined>,<undefined>,0.14288,0.54184,0.25105,<undefined>,0.19695,0.19188,0.14575,<undefined>,0.11881,0.0098048,-0.21537,<undefined>,-0.20588,0.15511,-0.16632,<undefined>,-0.017241,-0.042838,-0.11812,<undefined>,0.2388,0.51226,0.66161,<undefined>,-0.22855,0.28571,0.13128,<undefined>,0.14391,-0.071429,0.0077988,<undefined>,-0.059173,0.03217,0.018383,<undefined>,0.23684,-0.078857,0.0040851
famous,super,F01,S07,B,8,1006,TRUE,s018,-0.40596,<undefined>,-0.16248,-0.082516,-0.41513,<undefined>,-0.24372,-0.55086,-0.13388,<undefined>,0.037532,-0.5455,-0.59375,<undefined>,0.20588,-0.35574,<undefined>,<undefined>,<undefined>,<undefined>,-0.32675,<undefined>,0.18306,-0.34727,-0.045495,<undefined>,-0.39905,-0.39369,-0.39489,<undefined>,-0.40596,-0.33296,-0.14017,<undefined>,-0.26961,0.3652,0.45833,<undefined>,0.32609,0.13791,-0.18658,<undefined>,0.10539,0.25628,-0.31066,<undefined>,-0.26517,-0.23744,0.75,<undefined>,0.02381,0.053253,-0.21247,<undefined>,-0.53477,-0.55086,0.19456,<undefined>,-0.42231,-0.14216
famous,super,F01,S07,C,91,892,TRUE,s019,-0.30598,-0.24918,<undefined>,0.018519,-0.25508,0.24492,<undefined>,-0.43807,-0.23669,0.060225,<undefined>,-0.40406,-0.76733,0.14898,<undefined>,-0.18978,<undefined>,<undefined>,<undefined>,<undefined>,-0.028535,-0.28316,<undefined>,-0.29587,-0.23669,-0.10609,<undefined>,-0.25425,-0.28316,-0.042827,<undefined>,-0.29487,0,0.098328,<undefined>,0.53571,0.125,-0.11477,<undefined>,0.23077,-0.25425,-0.046918,<undefined>,-0.0044417,-0.23669,0.5,<undefined>,-0.066942,0.5,-0.3265,<undefined>,-0.011029,-0.3265,-0.48774,<undefined>,-0.41019,0.02381,0.11881,<undefined>,0.020425
famous,super,F01,S07,D,18,1215,TRUE,s020,0.040851,-0.015639,0.025021,<undefined>,0.0081701,0.12313,0.02381,<undefined>,0.22246,-0.067344,0.2381,<undefined>,-0.28571,-0.12652,0.047619,<undefined>,<undefined>,<undefined>,<undefined>,<undefined>,0.1592,0.091854,0.099323,<undefined>,0.2898,0.10749,0.020425,<undefined>,0.032681,0.19526,0.040851,<undefined>,-0.1306,-0.17414,-0.02381,<undefined>,0.30239,0.13793,0.32673,<undefined>,0.17892,-0.043534,0.11905,<undefined>,0.087769,0.25035,0.099323,<undefined>,0.35714,-0.039449,0.17892,<undefined>,0.14286,-0.16667,-0.082983,<undefined>,0.43674,0.28571,-0.049658,<undefined>
famous,super,F01,S09,A,142,838,TRUE,s021,<undefined>,-0.041258,0.3125,0.11111,<undefined>,0.70551,0.43627,0.37239,<undefined>,0.53846,0.5066,0.46429,<undefined>,-0.24943,-0.19074,0.2381,<undefined>,-0.32675,-0.028535,0.1592,<undefined>,<undefined>,<undefined>,<undefined>,<undefined>,0.80769,0.67857,0.6,<undefined>,0.52632,0.36842,-0.076923,<undefined>,0.044551,0.35935,-0.11425,<undefined>,-0.18078,-0.26705,-0.060426,<undefined>,0.57692,0.47654,0.26608,<undefined>,-0.06158,0.5132,0.53125,<undefined>,0.61538,-0.10679,0.15909,<undefined>,0.32143,0.46875,0.46154,<undefined>,0.21053,0.21739,0.1313
famous,super,F01,S09,B,38,990,TRUE,s022,0.68421,<undefined>,0.42024,0.33333,0.47059,<undefined>,0.44118,0.52941,0.55882,<undefined>,0.26975,0.5,0,<undefined>,-0.17056,0.39729,0.14288,<undefined>,-0.28316,0.091854,<undefined>,<undefined>,<undefined>,<undefined>,0.47563,<undefined>,0.73529,0.76471,0.82353,<undefined>,0.68421,0.025641,-0.029412,<undefined>,0.22607,-0.10164,-0.21068,<undefined>,-0.38256,-0.21041,0.45632,<undefined>,0.30926,0.29498,0.67647,<undefined>,0.098328,0.61765,-0.35626,<undefined>,-0.29248,0.32988,0.35294,<undefined>,0.55882,0.41176,-0.16597,<undefined>,0.47826,0.31361
famous,super,F01,S09,C,145,704,TRUE,s023,-0.073658,-0.22222,<undefined>,-0.042846,0.16789,0.46814,<undefined>,-0.010457,0.38165,0.44947,<undefined>,-0.0050763,-0.19231,-0.038462,<undefined>,0.020425,0.54184,0.18306,<undefined>,0.099323,<undefined>,<undefined>,<undefined>,<undefined>,0.48267,0.19526,<undefined>,0.040034,-0.0235,0.013545,<undefined>,-0.23479,0.16667,0.029412,<undefined>,0.16045,0.13215,-0.19802,<undefined>,-0.015931,0.00098124,0.41074,<undefined>,0.625,0.17962,0.010723,<undefined>,0.20895,0.28064,0.078055,<undefined>,0.090909,0.40441,-0.08876,<undefined>,-0.012066,0.079599,0.078947,<undefined>,-0.063258
famous,super,F01,S09,D,97,836,TRUE,s024,0.5,0.16667,0.29167,<undefined>,0.67857,0.37553,0.57143,<undefined>,0.75613,0.54797,0.40511,<undefined>,0.035714,-0.17139,-0.21006,<undefined>,0.25105,-0.34727,-0.29587,<undefined>,<undefined>,<undefined>,<undefined>,<undefined>,0.65511,0.54184,0.85714,<undefined>,0.61765,0.4782,0.5,<undefined>,0.071429,0.029412,0.38165,<undefined>,-0.23866,-0.16946,-0.41176,<undefined>,0.53905,0.58368,0.45308,<undefined>,0.85714,-0.2955,0.22654,<undefined>,-0.35504,0.67857,-0.28501,<undefined>,0.50613,0.42857,0.5625,<undefined>,-0.17005,0.057147,0.32609,<undefined>
famous,super,F01,S10,A,17,676,TRUE,s025,<undefined>,0,0.20833,0.068265,<undefined>,0.40511,0.42857,0.36667,<undefined>,0.46429,0.75,0.42857,<undefined>,-0.26733,0.073962,0.17484,<undefined>,-0.045495,-0.23669,0.2898,<undefined>,0.47563,0.48267,0.65511,<undefined>,<undefined>,<undefined>,<undefined>,<undefined>,0.39474,0.30753,-0.10659,<undefined>,-0.088235,0.29797,-0.14181,<undefined>,-0.10049,-0.20183,-0.17251,<undefined>,0.5,0.65511,0.54733,<undefined>,-0.24372,0.22654,0.42233,<undefined>,0.50613,-0.17822,0.13636,<undefined>,0.28571,0.38572,0.39286,<undefined>,0.28947,0.16709,0.11905
famous,super,F01,S10,B,42,583,TRUE,s026,0.26767,<undefined>,0.20833,0.040214,0.70833,<undefined>,0.43096,0.33905,0.5,<undefined>,0.42308,0.42857,-0.14725,<undefined>,-0.25461,0.19456,0.19695,<undefined>,-0.10609,0.10749,0.80769,<undefined>,0.19526,0.54184,<undefined>,<undefined>,<undefined>,<undefined>,0.35799,<undefined>,0.26767,-0.12601,0.16667,<undefined>,0.38215,-0.12085,-0.18689,<undefined>,-0.31426,-0.10219,0.56667,<undefined>,0.39898,0.19822,0.54184,<undefined>,0.5143,0.41161,-0.34996,<undefined>,-0.15033,0.18182,0.5,<undefined>,0.41161,0.42308,-0.22584,<undefined>,0.13416,0.079599
famous,super,F01,S10,C,101,674,TRUE,s027,0.60526,0.055556,<undefined>,0.27778,0.67857,0.40511,<undefined>,0.56667,0.69695,0.58981,<undefined>,0.71429,-0.065301,-0.14181,<undefined>,0.40476,0.19188,-0.39905,<undefined>,0.020425,0.67857,0.73529,<undefined>,0.85714,<undefined>,<undefined>,<undefined>,<undefined>,0.73529,0.55263,<undefined>,0.038462,0.041842,0.12269,<undefined>,-0.01628,-0.27318,-0.23842,<undefined>,-0.17251,0.61716,0.58368,<undefined>,0.21967,0.89898,-0.24372,<undefined>,0.75,-0.41421,0.75,<undefined>,0.18182,0.44695,0.57143,<undefined>,0.60714,-0.26529,0.078947,<undefined>,0.21429
famous,super,F01,S10,D,152,706,TRUE,s028,0.68421,0.083333,0.4375,<undefined>,0.6,0.34477,0.36667,<undefined>,0.61716,0.51716,0.28954,<undefined>,-0.094281,-0.16569,-0.25375,<undefined>,0.14575,-0.39369,-0.25425,<undefined>,0.6,0.76471,0.040034,<undefined>,<undefined>,<undefined>,<undefined>,<undefined>,0.82353,0.57895,0.68421,<undefined>,0.0057191,0.12774,0.32288,<undefined>,-0.26961,-0.23546,-0.39002,<undefined>,0.62288,0.51144,0.33431,<undefined>,0.80572,-0.23836,0.1781,<undefined>,-0.41993,0.66667,-0.24148,<undefined>,0.38382,0.5,0.71875,<undefined>,-0.2612,0.10526,0.47826,<undefined>
famous,super,F01,S11,A,144,807,TRUE,s029,<undefined>,0.13889,0.52083,0.44444,<undefined>,0.24539,0.26471,0.47059,<undefined>,0.39749,0.19666,0.5,<undefined>,-0.20502,-0.24366,0.45647,<undefined>,-0.39489,-0.28316,0.032681,<undefined>,0.82353,-0.0235,0.61765,<undefined>,0.35799,0.73529,0.82353,<undefined>,<undefined>,<undefined>,<undefined>,<undefined>,0.13783,0.22607,-0.10164,<undefined>,-0.22955,-0.38256,-0.16261,<undefined>,0.39245,0.23616,0.18743,<undefined>,-0.2487,0.098328,0.68656,<undefined>,0.52941,-0.23331,0.19352,<undefined>,0.38235,0.67647,0.41176,<undefined>,0.11429,0.6087,0.24627
famous,super,F01,S11,B,142,911,TRUE,s030,0.66241,<undefined>,0.5625,0.31799,0.36842,<undefined>,0.18421,0.29399,0.44737,<undefined>,0.21053,0.34211,-0.15789,<undefined>,-0.16164,0.2381,0.11881,<undefined>,-0.042827,0.19526,0.52632,<undefined>,0.013545,0.4782,0.39474,<undefined>,0.55263,0.57895,<undefined>,<undefined>,<undefined>,<undefined>,-0.078947,<undefined>,0.14964,-0.14357,-0.15176,<undefined>,-0.23412,0.013764,0.52632,<undefined>,0.22407,0.18047,0.55263,<undefined>,0.2985,0.44737,-0.32779,<undefined>,-0.070728,0.2578,0.26316,<undefined>,0.39474,0.31579,-0.17414,<undefined>,0.46025,0.19526
famous,super,F01,S11,C,21,913,TRUE,s031,1,0.13158,<undefined>,0.55556,0.36842,0.16692,<undefined>,0.36842,0.38197,0.30302,<undefined>,0.39474,-0.1797,-0.23607,<undefined>,0.43674,0.0098048,-0.40596,<undefined>,0.040851,0.36842,0.68421,<undefined>,0.5,0.30753,0.26767,<undefined>,0.68421,<undefined>,<undefined>,<undefined>,<undefined>,-0.10075,0.070692,<undefined>,-0.14357,-0.25531,-0.22363,<undefined>,-0.15601,0.38648,0.2985,<undefined>,0.11507,0.53083,-0.27515,<undefined>,0.56166,-0.43679,0.42105,<undefined>,0.20132,0.19776,0.28947,<undefined>,0.31579,-0.24486,0.12332,<undefined>,0.25444
famous,super,F01,S11,D,2,2574,TRUE,s032,0.12821,-0.012821,0.089744,<undefined>,-0.076923,-0.12821,-0.16667,<undefined>,-0.070324,-0.051282,-0.19633,<undefined>,-0.11318,-0.12821,-0.18131,<undefined>,-0.21537,-0.33296,-0.29487,<undefined>,-0.076923,0.025641,-0.23479,<undefined>,-0.10659,-0.12601,0.038462,<undefined>,<undefined>,<undefined>,<undefined>,<undefined>,-0.30549,-0.17069,-0.15165,<undefined>,-0.30914,-0.3388,-0.39706,<undefined>,-0.068124,-0.064103,-0.12161,<undefined>,0.0021997,-0.35677,-0.23919,<undefined>,-0.34798,-0.051282,-0.27765,<undefined>,-0.10879,0.038462,0.11538,<undefined>,-0.32196,-0.14505,0.25641,<undefined>
famous,super,F01,S12,A,119,543,TRUE,s033,<undefined>,-0.29126,-0.16667,-0.18201,<undefined>,0.11538,0.33333,0.033333,<undefined>,0.083522,0.34615,0.041842,<undefined>,-0.11538,-0.20588,-0.13877,<undefined>,-0.14017,0,-0.1306,<undefined>,-0.029412,0.16667,0.071429,<undefined>,0.16667,0.041842,0.0057191,<undefined>,-0.078947,-0.10075,-0.30549,<undefined>,<undefined>,<undefined>,<undefined>,<undefined>,-0.13497,-0.29316,-0.19231,<undefined>,0.13215,0.14286,0.0625,<undefined>,0,0,-0.025888,<undefined>,0.083522,-0.13877,-0.13636,<undefined>,-0.071429,-0.025888,0.038462,<undefined>,-0.13158,-0.17018,0.11905
famous,super,F01,S12,B,71,807,TRUE,s034,0.070692,<undefined>,0.020833,0.14815,0.058824,<undefined>,0.029412,-0.14201,-0.029412,<undefined>,0,0.025231,-0.47477,<undefined>,-0.13192,0.02451,-0.20588,<undefined>,0.098328,-0.17414,0.044551,<undefined>,0.029412,0.029412,-0.088235,<undefined>,0.12269,0.12774,0.13783,<undefined>,0.070692,-0.17069,<undefined>,<undefined>,<undefined>,<undefined>,0.0035744,<undefined>,-0.16954,0.019231,0.12774,<undefined>,0.14706,0.029412,0.088235,<undefined>,-0.1857,0.24034,-0.0092267,<undefined>,-0.059173,0.11364,-0.14201,<undefined>,0.0050463,-0.11765,-0.24965,<undefined>,-0.028559,-0.047619
famous,super,F01,S12,C,116,594,TRUE,s035,0.14964,-0.21269,<undefined>,0.077251,0.52145,0.5,<undefined>,0.20572,0.33981,0.57692,<undefined>,0.29797,-0.34615,0.006599,<undefined>,0.16667,0.15511,-0.26961,<undefined>,-0.02381,0.35935,0.22607,<undefined>,0.38165,0.29797,0.38215,<undefined>,0.32288,0.22607,0.14964,<undefined>,-0.15165,<undefined>,<undefined>,<undefined>,<undefined>,-0.21129,-0.21231,<undefined>,-0.11538,0.28382,0.66667,<undefined>,0.3125,0.38165,0.099112,<undefined>,0.44822,-0.16526,0.40441,<undefined>,0.053253,0.26923,0.21429,<undefined>,0.31429,-0.21767,-0.18421,<undefined>,0.11905
famous,super,F01,S12,D,95,624,TRUE,s036,-0.14357,-0.13889,0.017872,<undefined>,0.0077312,0.058258,-0.057126,<undefined>,-0.099964,0.34729,-0.095588,<undefined>,-0.69231,0.53846,-0.058824,<undefined>,-0.16632,0.3652,0.53571,<undefined>,-0.11425,-0.10164,0.16045,<undefined>,-0.14181,-0.12085,-0.01628,<undefined>,-0.10164,-0.14357,-0.14357,<undefined>,<undefined>,<undefined>,<undefined>,<undefined>,0.076798,-0.13793,0.068947,<undefined>,-0.12663,0.2319,0.20308,<undefined>,-0.01628,0.15625,-0.30109,<undefined>,0.4888,-0.069192,0.047619,<undefined>,-0.20437,-0.22549,-0.11336,<undefined>,-0.067344,-0.2015,-0.20556,<undefined>
famous,super,F01,S13,A,67,1187,TRUE,s037,<undefined>,-0.21844,0.067301,0.047659,<undefined>,-0.089869,-0.19404,-0.37439,<undefined>,-0.099979,-0.0065356,-0.37081,<undefined>,-0.10417,0.10417,-0.30116,<undefined>,0.45833,0.125,0.30239,<undefined>,-0.21068,0.13215,-0.23866,<undefined>,-0.18689,-0.27318,-0.26961,<undefined>,-0.15176,-0.25531,-0.30914,<undefined>,0.0035744,-0.21129,0.076798,<undefined>,<undefined>,<undefined>,<undefined>,<undefined>,-0.16248,0.080372,0.18096,<undefined>,0.125,-0.18393,-0.13092,<undefined>,-0.24224,0.086908,0.20537,<undefined>,-0.41963,-0.36366,-0.37439,<undefined>,-0.038092,-0.33864,0.083947
famous,super,F01,S13,B,30,1582,TRUE,s038,-0.22363,<undefined>,-0.25515,-0.28423,-0.27586,<undefined>,-0.15517,-0.19506,-0.13497,<undefined>,-0.083249,-0.30147,-0.27586,<undefined>,-0.2069,-0.38176,-0.017241,<undefined>,-0.11477,0.13793,-0.18078,<undefined>,-0.19802,-0.16946,-0.10049,<undefined>,-0.23842,-0.23546,-0.22955,<undefined>,-0.22363,-0.3388,-0.13497,<undefined>,-0.21231,-0.13793,<undefined>,<undefined>,<undefined>,<undefined>,-0.097532,<undefined>,-0.22414,-0.086207,-0.2325,<undefined>,-0.094574,-0.26107,0.017241,<undefined>,0.13793,0.16701,-0.068966,<undefined>,-0.17782,-0.17241,0.0202,<undefined>,-0.16895,0.12956
famous,super,F01,S13,C,116,1189,TRUE,s039,-0.37511,-0.33664,<undefined>,-0.15078,-0.40494,-0.12606,<undefined>,-0.53538,-0.26332,-0.21302,<undefined>,-0.49563,-0.56522,-0.10497,<undefined>,-0.42295,-0.042838,0.32609,<undefined>,0.32673,-0.26705,-0.38256,<undefined>,-0.41176,-0.20183,-0.31426,<undefined>,-0.39002,-0.38256,-0.23412,<undefined>,-0.39706,-0.29316,-0.16954,<undefined>,0.068947,<undefined>,<undefined>,<undefined>,<undefined>,-0.1981,-0.27824,<undefined>,0.00063994,-0.38629,0.36957,<undefined>,-0.24531,0.32609,-0.36147,<undefined>,-0.13725,-0.31799,-0.54657,<undefined>,-0.49936,0.30435,0.14535,<undefined>,0.055308
famous,super,F01,S13,D,134,1253,TRUE,s040,-0.15601,-0.2879,0.20937,<undefined>,-0.18241,0.086822,-0.19504,<undefined>,-0.17251,-0.012632,-0.14395,<undefined>,-0.4901,-0.096154,-0.057692,<undefined>,-0.11812,0.13791,0.23077,<undefined>,-0.060426,-0.21041,-0.015931,<undefined>,-0.17251,-0.10219,-0.17251,<undefined>,-0.16261,0.013764,-0.15601,<undefined>,-0.19231,0.019231,-0.11538,<undefined>,<undefined>,<undefined>,<undefined>,<undefined>,-0.015365,-0.070324,-0.0093323,<undefined>,-0.17251,0.2533,-0.054393,<undefined>,0.076923,-0.17581,0.14121,<undefined>,-0.22087,-0.30769,-0.25603,<undefined>,-0.019231,0.019231,-0.23294,<undefined>
famous,super,F01,S14,A,89,708,TRUE,s041,<undefined>,0.027778,0.27083,0.12382,<undefined>,0.34477,0.3,0.33333,<undefined>,0.43905,0.21144,0.43333,<undefined>,-0.24379,-0.39158,0.21837,<undefined>,-0.18658,-0.25425,0.17892,<undefined>,0.45632,0.00098124,0.53905,<undefined>,0.56667,0.61716,0.62288,<undefined>,0.52632,0.38648,-0.068124,<undefined>,0.12774,0.28382,-0.12663,<undefined>,-0.097532,-0.1981,-0.015365,<undefined>,<undefined>,<undefined>,<undefined>,<undefined>,-0.23836,0.1781,0.47947,<undefined>,0.53333,-0.031279,0.38636,<undefined>,0.3,0.44286,0.4,<undefined>,0.10526,0.23231,0.047619
famous,super,F01,S14,B,71,554,TRUE,s042,0.2985,<undefined>,0.25,0.16667,0.75715,<undefined>,0.58333,0.36667,0.54184,<undefined>,0.35935,0.5,-0.19231,<undefined>,-0.10251,0.35714,0.2388,<undefined>,-0.046918,-0.043534,0.57692,<undefined>,0.41074,0.58368,0.5,<undefined>,0.58368,0.51144,0.39245,<undefined>,0.2985,-0.064103,0.13215,<undefined>,0.66667,0.2319,-0.16248,<undefined>,-0.27824,-0.070324,<undefined>,<undefined>,<undefined>,<undefined>,0.58368,<undefined>,0.25,0.625,-0.22444,<undefined>,-0.30952,0.13636,0.42308,<undefined>,0.44822,0.5,-0.25712,<undefined>,0.15963,0.071429
famous,super,F01,S14,C,60,652,TRUE,s043,0.15867,-0.11111,<undefined>,0.12064,0.37553,0.60714,<undefined>,0.20572,0.69695,0.69083,<undefined>,0.22654,-0.10714,0.077556,<undefined>,0.23063,0.51226,0.10539,<undefined>,0.11905,0.47654,0.30926,<undefined>,0.45308,0.65511,0.39898,<undefined>,0.33431,0.23616,0.22407,<undefined>,-0.12161,0.14286,0.14706,<undefined>,0.20308,0.080372,-0.22414,<undefined>,-0.0093323,<undefined>,<undefined>,<undefined>,<undefined>,0.49492,-0.051777,<undefined>,0.48483,0.15004,0.3041,<undefined>,0.13636,0.60714,0.14286,<undefined>,0.22041,0.020425,0.078947,<undefined>,0.03198
famous,super,F01,S14,D,8,906,TRUE,s044,0.11507,-0.16667,0.19822,<undefined>,0.20358,0.46875,0.375,<undefined>,0.45895,0.47947,0.53125,<undefined>,-0.15625,-0.020527,0.38235,<undefined>,0.66161,0.25628,-0.0044417,<undefined>,0.26608,0.29498,0.625,<undefined>,0.54733,0.19822,0.21967,<undefined>,0.18743,0.18047,0.11507,<undefined>,0.0625,0.029412,0.3125,<undefined>,0.18096,-0.086207,0.00063994,<undefined>,<undefined>,<undefined>,<undefined>,<undefined>,0.28217,-0.11428,0.13572,<undefined>,0.15717,0.14108,-0.18639,<undefined>,0.38036,0,0.083947,<undefined>,0.15511,0.16241,0.0080996,<undefined>
famous,super,F01,S15,A,94,981,TRUE,s045,<undefined>,0.055556,0.33333,0.2254,<undefined>,0.40511,0.42857,0.56667,<undefined>,0.58981,0.44695,0.64286,<undefined>,-0.14181,-0.1756,0.35714,<undefined>,-0.31066,-0.23669,0.087769,<undefined>,0.67647,0.17962,0.85714,<undefined>,0.54184,0.89898,0.80572,<undefined>,0.55263,0.53083,0.0021997,<undefined>,0.088235,0.38165,-0.01628,<undefined>,-0.2325,-0.38629,-0.17251,<undefined>,0.58368,0.49492,0.28217,<undefined>,<undefined>,<undefined>,<undefined>,<undefined>,0.75,-0.24556,0.18182,<undefined>,0.5,0.625,0.60714,<undefined>,0.087978,0.35156,0.21429
famous,super,F01,S15,B,15,760,TRUE,s046,-0.27515,<undefined>,-0.017259,-0.10793,-0.2598,<undefined>,-0.28033,-0.4473,-0.24372,<undefined>,-0.1973,-0.39017,-0.59375,<undefined>,-0.088235,-0.27346,-0.22855,<undefined>,0.5,0.25035,-0.06158,<undefined>,0.010723,-0.2955,-0.24372,<undefined>,-0.24372,-0.23836,-0.2487,<undefined>,-0.27515,-0.35677,0,<undefined>,0.099112,0.15625,0.125,<undefined>,0.36957,0.2533,-0.23836,<undefined>,-0.051777,-0.11428,<undefined>,<undefined>,<undefined>,<undefined>,0.25,<undefined>,0.30952,-0.15842,-0.3223,<undefined>,-0.37944,-0.39553,0.11905,<undefined>,-0.31426,0.31769
famous,super,F01,S15,C,41,756,TRUE,s047,0.035346,-0.22617,<undefined>,-0.12328,0.34048,0.54506,<undefined>,0.072386,0.22654,0.19231,<undefined>,0.14286,-0.34615,-0.44721,<undefined>,-0.015639,0.28571,-0.26517,<undefined>,0.099323,0.5132,0.098328,<undefined>,0.22654,0.22654,0.5143,<undefined>,0.1781,0.098328,0.2985,<undefined>,-0.23919,0,-0.1857,<undefined>,-0.30109,-0.18393,-0.094574,<undefined>,-0.054393,0.1781,0.25,<undefined>,0.13572,<undefined>,<undefined>,<undefined>,<undefined>,-0.33263,0.34615,<undefined>,-0.037656,0.23737,0,<undefined>,0.11538,-0.21429,0.3203,<undefined>,0.2898
famous,super,F01,S15,D,138,907,TRUE,s048,0.56166,0.055556,0.34048,<undefined>,0.53125,0.46875,0.3125,<undefined>,0.51072,0.65625,0.2402,<undefined>,-0.11964,0.016085,-0.057958,<undefined>,0.13128,-0.23744,-0.066942,<undefined>,0.53125,0.61765,0.20895,<undefined>,0.42233,0.41161,0.75,<undefined>,0.68656,0.44737,0.56166,<undefined>,-0.025888,0.24034,0.44822,<undefined>,-0.13092,-0.26107,-0.24531,<undefined>,0.47947,0.625,0.48483,<undefined>,<undefined>,<undefined>,<undefined>,<undefined>,-0.24816,0.59375,-0.27684,<undefined>,0.32858,0.41161,0.5625,<undefined>,-0.22922,-0.017286,0.37702,<undefined>
famous,super,F01,S17,A,124,998,TRUE,s049,<undefined>,-0.18968,-0.16963,-0.095225,<undefined>,-0.099964,-0.27854,-0.54853,<undefined>,-0.1173,0.042893,-0.58158,<undefined>,0.14898,0.14706,-0.33602,<undefined>,0.75,0.5,0.35714,<undefined>,-0.35626,0.28064,-0.35504,<undefined>,-0.34996,-0.41421,-0.41993,<undefined>,-0.32779,-0.43679,-0.34798,<undefined>,-0.0092267,-0.16526,0.4888,<undefined>,0.017241,0.32609,0.076923,<undefined>,-0.22444,0.15004,0.15717,<undefined>,0.25,-0.33263,-0.24816,<undefined>,<undefined>,<undefined>,<undefined>,<undefined>,-0.66526,-0.49816,-0.58771,<undefined>,0.013545,-0.44778,-0.10271
famous,super,F01,S17,B,8,1684,TRUE,s050,0.42105,<undefined>,0.22917,0.14815,0.76923,<undefined>,0.42308,0.4781,0.60714,<undefined>,0.32089,0.53571,-0.095588,<undefined>,-0.31257,0.28571,0.14391,<undefined>,-0.3265,-0.039449,0.61538,<undefined>,0.078055,0.67857,0.50613,<undefined>,0.75,0.66667,0.52941,<undefined>,0.42105,-0.051282,0.083522,<undefined>,0.40441,-0.069192,-0.24224,<undefined>,-0.36147,-0.17581,0.53333,<undefined>,0.3041,0.14108,0.75,<undefined>,0.34615,0.59375,<undefined>,<undefined>,<undefined>,<undefined>,0.42968,<undefined>,0.53125,0.53846,-0.17414,<undefined>,0.26087,0.15103
famous,super,F01,S17,C,160,1280,TRUE,s051,-0.22514,-0.30474,<undefined>,-0.18519,-0.25782,-0.11496,<undefined>,-0.2102,-0.19795,-0.29727,<undefined>,-0.35714,-0.19048,-0.13469,<undefined>,-0.46802,-0.071429,0.02381,<undefined>,0.17892,-0.10679,-0.29248,<undefined>,-0.28501,-0.17822,-0.15033,<undefined>,-0.24148,-0.23331,-0.070728,<undefined>,-0.27765,-0.13877,-0.059173,<undefined>,0.047619,0.086908,0.13793,<undefined>,0.14121,-0.031279,-0.30952,<undefined>,-0.18639,-0.24556,0.30952,<undefined>,-0.27684,<undefined>,<undefined>,<undefined>,<undefined>,-0.10679,-0.11088,<undefined>,-0.059173,-0.019724,0,<undefined>,0.15103
famous,super,F01,S17,D,98,1399,TRUE,s052,0.20132,0.13636,0.10478,<undefined>,0.11364,0.14026,0.22727,<undefined>,0.18182,0.12144,0.068182,<undefined>,0.022727,-0.060383,-0.19675,<undefined>,0.0077988,0.053253,-0.011029,<undefined>,0.15909,0.32988,0.090909,<undefined>,0.13636,0.18182,0.18182,<undefined>,0.19352,0.2578,0.20132,<undefined>,-0.13636,0.11364,0.053253,<undefined>,0.20537,0.16701,-0.13725,<undefined>,0.38636,0.13636,0.13636,<undefined>,0.18182,-0.15842,-0.037656,<undefined>,<undefined>,<undefined>,<undefined>,<undefined>,0.25,0.18182,0.13636,<undefined>,0.057153,-0.10584,0.13416,<undefined>
famous,super,F01,S90,A,79,783,TRUE,s053,<undefined>,-0.083333,0.10417,-0.0089867,<undefined>,0.38462,0.42308,0.26667,<undefined>,0.38462,0.61538,0.32143,<undefined>,-0.33955,0.068916,0.10341,<undefined>,-0.21247,-0.3265,0.14286,<undefined>,0.35294,0.40441,0.50613,<undefined>,0.5,0.44695,0.38382,<undefined>,0.26316,0.19776,-0.10879,<undefined>,-0.14201,0.26923,-0.20437,<undefined>,-0.068966,-0.31799,-0.22087,<undefined>,0.42308,0.60714,0.38036,<undefined>,-0.3223,0.23737,0.32858,<undefined>,0.42968,-0.10679,0.25,<undefined>,<undefined>,<undefined>,<undefined>,<undefined>,0.10526,0.16336,0.047619
famous,super,F01,S90,B,86,886,TRUE,s054,0.28947,<undefined>,0.125,0.055556,0.46429,<undefined>,0.14286,0.5,0.35714,<undefined>,0.10714,0.28571,0.36327,<undefined>,0.025231,0.11905,-0.059173,<undefined>,-0.48774,-0.16667,0.32143,<undefined>,-0.08876,0.42857,0.28571,<undefined>,0.57143,0.5,0.38235,<undefined>,0.28947,0.038462,-0.071429,<undefined>,0.21429,-0.22549,-0.41963,<undefined>,-0.54657,-0.30769,0.3,<undefined>,0.14286,0,0.5,<undefined>,0,0.41161,-0.66526,<undefined>,-0.11088,0.18182,<undefined>,<undefined>,<undefined>,<undefined>,-0.38364,<undefined>,0.32609,-0.071429
famous,super,F01,S90,C,45,951,TRUE,s055,0.55263,0.019064,<undefined>,0.24074,0.53125,0.25536,<undefined>,0.78125,0.47411,0.41697,<undefined>,0.4375,0.13036,-0.21875,<undefined>,0.2619,0.03217,-0.53477,<undefined>,-0.082983,0.46875,0.55882,<undefined>,0.5625,0.38572,0.41161,<undefined>,0.71875,0.67647,0.39474,<undefined>,0.11538,-0.025888,0.0050463,<undefined>,-0.11336,-0.36366,-0.17782,<undefined>,-0.25603,0.44286,0.44822,<undefined>,0.083947,0.625,-0.37944,<undefined>,0.5625,-0.49816,0.53125,<undefined>,0.13636,<undefined>,<undefined>,<undefined>,<undefined>,-0.34419,0.022575,<undefined>,0.071429
famous,super,F01,S90,D,127,756,TRUE,s056,0.31579,-0.1619,0.14583,<undefined>,0.61538,0.23077,0.26923,<undefined>,0.46429,0.46154,0.23077,<undefined>,0.27583,-0.29449,-0.063004,<undefined>,0.018383,-0.55086,-0.41019,<undefined>,0.46154,0.41176,-0.012066,<undefined>,0.39286,0.42308,0.60714,<undefined>,0.41176,0.31579,0.31579,<undefined>,0.038462,-0.11765,0.31429,<undefined>,-0.37439,-0.17241,-0.49936,<undefined>,0.4,0.5,0.22041,<undefined>,0.60714,-0.39553,0.11538,<undefined>,-0.58771,0.53846,-0.059173,<undefined>,<undefined>,<undefined>,<undefined>,<undefined>,-0.34827,-0.15789,0.34783,<undefined>
famous,super,F01,S91,A,10,1198,TRUE,s057,<undefined>,-0.21429,-0.21487,-0.14443,<undefined>,-0.17414,-0.17005,-0.33672,<undefined>,-0.18569,-0.039449,-0.35236,<undefined>,-0.13469,0.1313,-0.41562,<undefined>,0.19456,0.02381,0.43674,<undefined>,-0.16597,0.079599,-0.17005,<undefined>,-0.22584,-0.26529,-0.2612,<undefined>,-0.17414,-0.24486,-0.32196,<undefined>,-0.24965,-0.21767,-0.067344,<undefined>,0.0202,0.30435,-0.019231,<undefined>,-0.25712,0.020425,0.15511,<undefined>,0.11905,-0.21429,-0.22922,<undefined>,-0.17414,-0.019724,0.057153,<undefined>,-0.38364,-0.34419,-0.34827,<undefined>,<undefined>,<undefined>,<undefined>
famous,super,F01,S91,B,36,996,TRUE,s058,0.12332,<undefined>,0.16013,-0.061365,0,<undefined>,-0.078947,-0.025541,0.23684,<undefined>,0.15789,-0.13158,-0.21427,<undefined>,-0.1526,-0.19048,0.23684,<undefined>,0.11881,0.28571,0.21053,<undefined>,0.078947,0.057147,0.28947,<undefined>,0.078947,0.10526,0.11429,<undefined>,0.12332,-0.14505,-0.13158,<undefined>,-0.18421,-0.2015,-0.038092,<undefined>,0.14535,0.019231,0.10526,<undefined>,0.078947,0.16241,0.087978,<undefined>,0.3203,-0.017286,0.013545,<undefined>,0,-0.10584,0.10526,<undefined>,0.022575,-0.15789,<undefined>,<undefined>,<undefined>,<undefined>
famous,super,F01,S91,C,45,1314,TRUE,s059,0.73913,0.021739,<undefined>,0.48148,0.21739,0.050938,<undefined>,0.3913,0.22858,0.16336,<undefined>,0.23913,-0.061488,-0.22794,<undefined>,0.31181,-0.078857,-0.42231,<undefined>,-0.049658,0.21739,0.47826,<undefined>,0.32609,0.16709,0.13416,<undefined>,0.47826,0.6087,0.46025,<undefined>,0.25641,-0.17018,-0.028559,<undefined>,-0.20556,-0.33864,-0.16895,<undefined>,-0.23294,0.23231,0.15963,<undefined>,0.0080996,0.35156,-0.31426,<undefined>,0.37702,-0.44778,0.26087,<undefined>,0.13416,0.16336,0.32609,<undefined>,0.34783,<undefined>,<undefined>,<undefined>,<undefined>
famous,super,F01,S91,D,93,1300,TRUE,s060,0.25444,0.020425,0.059539,<undefined>,0.14286,0.12313,0.11905,<undefined>,0.16667,0.055789,0.047619,<undefined>,-0.2381,-0.14624,-0.33333,<undefined>,0.0040851,-0.14216,0.020425,<undefined>,0.1313,0.31361,-0.063258,<undefined>,0.11905,0.079599,0.21429,<undefined>,0.24627,0.19526,0.25444,<undefined>,0.11905,-0.047619,0.11905,<undefined>,0.083947,0.12956,0.055308,<undefined>,0.047619,0.071429,0.03198,<undefined>,0.21429,0.31769,0.2898,<undefined>,-0.10271,0.15103,0.15103,<undefined>,0.047619,-0.071429,0.071429,<undefined>,<undefined>,<undefined>,<undefined>,<undefined>
famous,super,F02,S01,A,73,1135,TRUE,s001,<undefined>,<undefined>,<undefined>,<undefined>,<undefined>,0.25,0.0077988,0.31818,<undefined>,0.18182,0.068182,0.19352,<undefined>,-0.0071297,0.68182,-0.011029,<undefined>,-0.063613,0.2617,-0.25646,<undefined>,0.25,0.45455,0.15909,<undefined>,0.45455,0.45455,0.31818,<undefined>,0.52273,0.75,0.34158,<undefined>,0.14483,0.049354,-0.10517,<undefined>,-0.21424,-0.094139,0.060225,<undefined>,0.18962,-0.12077,0.38636,<undefined>,0.38636,-0.22337,0.36364,<undefined>,-0.078542,-0.44151,-0.32464,<undefined>,-0.068182,0.14806,0.27273,<undefined>,-0.13959,-0.40708,0.29222
famous,super,F02,S01,B,127,1216,TRUE,s002,<undefined>,<undefined>,<undefined>,<undefined>,0.0077988,<undefined>,-0.018828,0.22727,0.090909,<undefined>,0.25,0.11364,0.045455,<undefined>,0.31818,-0.094139,0.13636,<undefined>,0.13636,-0.33634,-0.25,<undefined>,0.27273,0.011698,0.25,<undefined>,0.27273,0.22727,0.045455,<undefined>,0.43182,0.090909,0.22727,<undefined>,-0.068182,-0.31818,-0.40698,<undefined>,-0.22727,-0.14286,0.019497,<undefined>,-0.17402,0.25,-0.037656,<undefined>,-0.29545,0.36364,-0.055815,<undefined>,-0.57464,-0.4688,0.31818,<undefined>,0.30325,0.18182,0.22727,<undefined>,-0.64672,0.068182
famous,super,F02,S01,C,37,931,TRUE,s003,<undefined>,<undefined>,<undefined>,<undefined>,0.22607,0.47059,<undefined>,0.55882,0.40254,0.38235,<undefined>,0.42186,-0.018246,0.1622,<undefined>,0.15715,0.38235,0.089101,<undefined>,-0.18483,-0.11765,0.47059,<undefined>,0.35294,0.64706,0.73529,<undefined>,0.55882,0.48573,0.82353,<undefined>,0.54684,0.55882,0.35885,<undefined>,-0.045206,-0.18605,-0.18907,<undefined>,0.086748,0.3143,0.41681,<undefined>,0.64706,0.098328,0.64706,<undefined>,0.61765,0.19666,-0.022194,<undefined>,-0.2487,0.20588,0.058824,<undefined>,0.5,0.72699,-0.10784,<undefined>,0.34967
famous,super,F02,S01,D,9,1052,TRUE,s004,<undefined>,<undefined>,<undefined>,<undefined>,0.13636,0.25,0.13636,<undefined>,0.2539,0.18182,0.068182,<undefined>,0.21624,0.057153,0.54545,<undefined>,0.18182,0.00066903,0.32598,<undefined>,-0.20455,0.25,0.45455,<undefined>,0.38636,0.45455,0.45455,<undefined>,0.30715,0.52273,0.65909,<undefined>,0.31818,0.18249,0.049354,<undefined>,-0.16245,-0.25646,-0.20065,<undefined>,0.12923,0.2539,-0.12077,<undefined>,0,0.38636,-0.22337,<undefined>,0.11364,-0.048685,-0.26426,<undefined>,0.045455,-0.068182,0.20455,<undefined>,0.59091,-0.2227,-0.50579,<undefined>
famous,super,F02,S02,A,26,707,TRUE,s005,<undefined>,0.0077988,0.22607,0.13636,<undefined>,<undefined>,<undefined>,<undefined>,<undefined>,0.38215,0.19231,0.35935,<undefined>,-0.033333,0.18573,0.25613,<undefined>,0.051659,0.33981,-0.20324,<undefined>,0.52145,0.38165,0.36667,<undefined>,0.38165,0.38165,0.5286,<undefined>,0.32288,0.087769,0.18573,<undefined>,0.12269,-0.033333,0.032544,<undefined>,-0.18161,-0.2461,0.14286,<undefined>,0.43096,0,0.44947,<undefined>,0.44947,0.006599,0.38165,<undefined>,-0.11111,-0.054247,0.021447,<undefined>,0.20833,0.56667,0.47978,<undefined>,-0.2,-0.51651,0.14694
famous,super,F02,S02,B,155,527,TRUE,s006,0.25,<undefined>,0.47059,0.25,<undefined>,<undefined>,<undefined>,<undefined>,0.57756,<undefined>,0.38462,0.66045,-0.13889,<undefined>,0.41667,0.25,0.67857,<undefined>,0.67857,-0.10105,0.090909,<undefined>,0.67857,0.33333,0.76923,<undefined>,0.67857,0.875,0.46875,<undefined>,0.28571,0.41667,0.875,<undefined>,0.2,-0.05079,-0.25581,<undefined>,-0.11364,0.089286,0.4,<undefined>,0.18811,0.76923,0.42469,<undefined>,0,0.67857,0.26667,<undefined>,-0.43709,-0.28569,0.45833,<undefined>,0.4,0.875,0.41667,<undefined>,-0.42853,0.28571
famous,super,F02,S02,C,147,738,TRUE,s007,0.0077988,-0.018828,<undefined>,0.13636,<undefined>,<undefined>,<undefined>,<undefined>,0.5,0.38215,<undefined>,0.26923,0.11111,0.1781,<undefined>,0.33981,0.29797,-0.038462,<undefined>,-0.36482,-0.1107,0.42382,<undefined>,0.3,0.35935,0.29797,<undefined>,0.43096,0.125,0.24477,<undefined>,0.12064,0.43096,0.029412,<undefined>,-0.16667,-0.30996,-0.33263,<undefined>,0,0.033333,0.33333,<undefined>,0.35935,0.5,0.35935,<undefined>,0.29797,0.3,-0.16667,<undefined>,-0.17678,0,0.041667,<undefined>,0.38215,0.27778,-0.12071,<undefined>,0.0040851
famous,super,F02,S02,D,84,586,TRUE,s008,0.31818,0.22727,0.55882,<undefined>,<undefined>,<undefined>,<undefined>,<undefined>,0.58368,0.75,0.42308,<undefined>,-0.11111,0.20572,0.5,<undefined>,0.64286,0.2319,0.6847,<undefined>,0.041667,0.875,0.78571,<undefined>,0.88462,0.78571,0.78571,<undefined>,0.5,0.7,0.35714,<undefined>,1,0.30926,0.23333,<undefined>,-0.24419,-0.18161,-0.090909,<undefined>,0.40572,0.7643,0.19526,<undefined>,0.34763,0.88462,0.006599,<undefined>,0.27239,-0.01348,-0.43137,<undefined>,0.5,0.29167,0.43333,<undefined>,0.5,-0.15,-0.42402,<undefined>
famous,super,F02,S03,A,38,933,TRUE,s009,<undefined>,0.090909,0.40254,0.2539,<undefined>,0.57756,0.5,0.58368,<undefined>,<undefined>,<undefined>,<undefined>,<undefined>,0.033333,0.3524,0.22654,<undefined>,0.060225,0.47041,-0.099964,<undefined>,0.57756,0.59594,0.36667,<undefined>,0.59594,0.59594,0.58368,<undefined>,0.52288,0.23063,0.28731,<undefined>,0.29916,0.1,-0.036492,<undefined>,-0.17344,-0.13636,0.077556,<undefined>,0.5,0.012255,0.58981,<undefined>,0.58981,0.077556,0.51226,<undefined>,0.0095318,-0.15997,-0.09283,<undefined>,0.17857,0.63333,0.54184,<undefined>,-0.15,-0.40222,0.14694
famous,super,F02,S03,B,87,778,TRUE,s010,0.18182,<undefined>,0.38235,0.18182,0.38215,<undefined>,0.38215,0.75,<undefined>,<undefined>,<undefined>,<undefined>,-0.036492,<undefined>,0.38889,0.16737,0.5,<undefined>,0.5,-0.22964,-0.125,<undefined>,0.57143,0.28382,0.65385,<undefined>,0.57143,0.75,0.3125,<undefined>,0.21429,0.33333,0.75,<undefined>,0.16667,-0.16667,-0.31395,<undefined>,-0.22727,0,0.32288,<undefined>,0.048816,0.65385,0.34763,<undefined>,-0.19231,0.71429,0.1,<undefined>,-0.54853,-0.36872,0.25,<undefined>,0.23333,0.66667,0.33333,<undefined>,-0.51651,0.16667
famous,super,F02,S03,C,154,813,TRUE,s011,0.068182,0.25,<undefined>,0.068182,0.19231,0.38462,<undefined>,0.42308,<undefined>,<undefined>,<undefined>,<undefined>,0.22699,0.13333,<undefined>,-0.094888,0.32143,-0.076923,<undefined>,-0.40328,-0.23077,0.38462,<undefined>,0.066667,0.46154,0.39286,<undefined>,0.42308,0.09375,0.33333,<undefined>,0.13889,0.42308,0,<undefined>,-0.36111,-0.34884,-0.37278,<undefined>,-0.125,0.039052,0.26923,<undefined>,0.46154,0.19231,0.46154,<undefined>,0.32143,0.050491,-0.27301,<undefined>,-0.48392,0.65385,0.46154,<undefined>,0.5,0.19444,0.225,<undefined>,0
famous,super,F02,S03,D,148,632,TRUE,s012,0.19352,0.11364,0.42186,<undefined>,0.35935,0.66045,0.26923,<undefined>,<undefined>,<undefined>,<undefined>,<undefined>,0.083333,0.46667,0.34763,<undefined>,0.50613,0.56486,0.89286,<undefined>,-0.076923,0.66045,0.58981,<undefined>,0.67364,0.58981,0.58981,<undefined>,0.71875,0.51716,0.22654,<undefined>,0.66704,0.56387,0.26667,<undefined>,-0.18605,0.02451,-0.08701,<undefined>,0.26667,0.88462,0.051659,<undefined>,0.28243,0.67364,-0.076923,<undefined>,0.13333,0.22699,-0.14281,<undefined>,0.26923,0.23077,0.26667,<undefined>,0.34763,-0.275,-0.512,<undefined>
famous,super,F02,S04,A,25,1012,TRUE,s013,<undefined>,0.045455,-0.018246,0.21624,<undefined>,-0.13889,0.11111,-0.11111,<undefined>,-0.036492,0.22699,0.083333,<undefined>,<undefined>,<undefined>,<undefined>,<undefined>,-0.027778,0.11111,-0.41667,<undefined>,-0.13889,-0.055556,-0.041258,<undefined>,-0.055556,-0.055556,-0.11111,<undefined>,-0.05079,-0.10271,0.16667,<undefined>,-0.083333,-0.25,-0.16667,<undefined>,-0.23401,-0.46557,-0.28571,<undefined>,0,-0.42538,-0.083333,<undefined>,-0.083333,-0.41108,-0.10158,<undefined>,-0.13412,-0.10635,0,<undefined>,-0.027778,0.027778,-0.055556,<undefined>,-0.0035534,-0.91202,-0.2619
famous,super,F02,S04,B,77,1012,TRUE,s014,-0.0071297,<undefined>,0.1622,0.057153,-0.033333,<undefined>,0.1781,0.20572,0.033333,<undefined>,0.13333,0.46667,<undefined>,<undefined>,<undefined>,<undefined>,0.1,<undefined>,0.5,-0.26667,-0.26667,<undefined>,0.21716,-0.082843,0.21144,<undefined>,0.21716,0.20572,0.46875,<undefined>,0.01634,0.41667,0.20572,<undefined>,0.066667,-0.027778,-0.30233,<undefined>,-0.29545,-0.19643,-0.016176,<undefined>,-0.3,0.21144,-0.033333,<undefined>,-0.33333,0.35049,-0.26667,<undefined>,-0.2714,-0.10892,-0.1,<undefined>,-0.13333,0.16667,0.1024,<undefined>,-0.71878,-0.095238
famous,super,F02,S04,C,70,1158,TRUE,s015,0.68182,0.31818,<undefined>,0.54545,0.18573,0.41667,<undefined>,0.5,0.3524,0.38889,<undefined>,0.34763,<undefined>,<undefined>,<undefined>,<undefined>,0.33333,0.033361,<undefined>,-0.20234,-0.13889,0.41667,<undefined>,0.30556,0.58333,0.66667,<undefined>,0.5,0.40795,0.75,<undefined>,0.49605,0.5,0.28813,<undefined>,-0.049972,-0.19767,-0.18499,<undefined>,0.089811,0.26906,0.34287,<undefined>,0.58333,0.065087,0.58333,<undefined>,0.55556,0.15795,-0.017428,<undefined>,-0.28567,0.22222,0.083333,<undefined>,0.44444,0.73175,-0.11213,<undefined>,0.34559
famous,super,F02,S04,D,116,913,TRUE,s016,-0.011029,-0.094139,0.15715,<undefined>,0.25613,0.25,0.33981,<undefined>,0.22654,0.16737,-0.094888,<undefined>,<undefined>,<undefined>,<undefined>,<undefined>,0.14286,0.25,0.57143,<undefined>,-0.21323,0.25,0.26838,<undefined>,0.26226,0.26838,0.26838,<undefined>,0.375,0.21716,0.012255,<undefined>,0.25613,0.26471,-0.021895,<undefined>,-0.23222,-0.13877,-0.29156,<undefined>,-0.1,0.42857,-0.16019,<undefined>,0.14286,0.26226,-0.22549,<undefined>,0.033333,0.055556,0.028595,<undefined>,-0.14286,-0.10714,0.1,<undefined>,0.097631,-0.40355,-0.68344,<undefined>
famous,super,F02,S07,A,61,851,TRUE,s017,<undefined>,0.13636,0.38235,0.18182,<undefined>,0.67857,0.29797,0.64286,<undefined>,0.5,0.32143,0.50613,<undefined>,0.1,0.33333,0.14286,<undefined>,<undefined>,<undefined>,<undefined>,<undefined>,0.67857,0.57143,0.3,<undefined>,0.57143,0.57143,0.64286,<undefined>,0.5,0.21429,0.33333,<undefined>,0.21597,0.1,-0.13412,<undefined>,-0.25712,-0.18182,0.035714,<undefined>,0.54184,0.095939,0.60714,<undefined>,0.60714,0.077556,0.57143,<undefined>,-0.10158,-0.41993,-0.32138,<undefined>,0.17857,0.41716,0.64286,<undefined>,-0.1,-0.41499,0.21429
famous,super,F02,S07,B,134,823,TRUE,s018,-0.063613,<undefined>,0.089101,0.00066903,0.051659,<undefined>,-0.038462,0.2319,0.060225,<undefined>,-0.076923,0.56486,-0.027778,<undefined>,0.033361,0.25,<undefined>,<undefined>,<undefined>,<undefined>,-0.10879,<undefined>,0.18575,-0.094281,0.2385,<undefined>,0.18575,0.2319,0.50536,<undefined>,-0.042833,0.50477,0.2319,<undefined>,0.26667,0.28254,-0.18605,<undefined>,-0.08701,-0.0056019,-0.055228,<undefined>,-0.19231,0.2385,0.083522,<undefined>,-0.18571,0.14391,-0.13333,<undefined>,0.15621,0.25536,-0.038462,<undefined>,-0.055228,0.18684,0.033361,<undefined>,-0.63532,-0.070728
famous,super,F02,S07,C,99,964,TRUE,s019,0.2617,0.13636,<undefined>,0.32598,0.33981,0.67857,<undefined>,0.6847,0.47041,0.5,<undefined>,0.89286,0.11111,0.5,<undefined>,0.57143,<undefined>,<undefined>,<undefined>,<undefined>,-0.035714,0.67857,<undefined>,0.23333,0.69083,0.69695,<undefined>,0.6847,0.75,0.61716,<undefined>,0.66667,0.6847,0.56892,<undefined>,0.13017,-0.17442,0.028595,<undefined>,0.035714,0.3,0.78571,<undefined>,0.69083,0.22654,0.69083,<undefined>,0.61327,0.16667,0.23175,<undefined>,-0.0044417,0.28571,0.17857,<undefined>,0.64286,0.43096,-0.25,<undefined>,0.21429
famous,super,F02,S07,D,139,987,TRUE,s020,-0.25646,-0.33634,-0.18483,<undefined>,-0.20324,-0.10105,-0.36482,<undefined>,-0.099964,-0.22964,-0.40328,<undefined>,-0.41667,-0.26667,-0.20234,<undefined>,<undefined>,<undefined>,<undefined>,<undefined>,-0.10879,-0.10105,-0.1173,<undefined>,-0.087857,-0.1173,-0.1173,<undefined>,-0.14997,-0.14281,-0.24486,<undefined>,-0.094456,0.23111,0.17239,<undefined>,-0.16279,0.26599,0.20455,<undefined>,0.19526,-0.18458,-0.038462,<undefined>,-0.24283,-0.087857,-0.031863,<undefined>,-0.082843,0.060321,-0.016176,<undefined>,-0.36482,-0.29449,-0.31519,<undefined>,-0.20234,0.075,0.11429,<undefined>
famous,super,F02,S09,A,146,656,TRUE,s021,<undefined>,-0.25,-0.11765,-0.20455,<undefined>,0.090909,-0.1107,0.041667,<undefined>,-0.125,-0.23077,-0.076923,<undefined>,-0.26667,-0.13889,-0.21323,<undefined>,-0.10879,-0.035714,-0.10879,<undefined>,<undefined>,<undefined>,<undefined>,<undefined>,-0.035714,-0.035714,0.041667,<undefined>,-0.066667,-0.19048,-0.13889,<undefined>,-0.20084,0.33333,0.13889,<undefined>,-0.25782,0.15909,-0.26786,<undefined>,-0.041667,0.375,0,<undefined>,0,0.66045,-0.035714,<undefined>,0.0047659,-0.16095,0.067862,<undefined>,-0.36364,-0.066667,0.041667,<undefined>,0.025,-0.1797,-0.095238
famous,super,F02,S09,B,115,698,TRUE,s022,0.25,<undefined>,0.47059,0.25,0.52145,<undefined>,0.42382,0.875,0.57756,<undefined>,0.38462,0.66045,-0.13889,<undefined>,0.41667,0.25,0.67857,<undefined>,0.67857,-0.10105,<undefined>,<undefined>,<undefined>,<undefined>,0.76923,<undefined>,0.67857,0.875,0.46875,<undefined>,0.28571,0.41667,0.875,<undefined>,0.2,-0.05079,-0.25581,<undefined>,-0.11364,0.089286,0.4,<undefined>,0.18811,0.76923,0.42469,<undefined>,0,0.67857,0.26667,<undefined>,-0.43709,-0.28569,0.45833,<undefined>,0.4,0.875,0.41667,<undefined>,-0.42853,0.28571
famous,super,F02,S09,C,78,672,TRUE,s023,0.45455,0.27273,<undefined>,0.45455,0.38165,0.67857,<undefined>,0.78571,0.59594,0.57143,<undefined>,0.58981,-0.055556,0.21716,<undefined>,0.26838,0.57143,0.18575,<undefined>,-0.1173,<undefined>,<undefined>,<undefined>,<undefined>,0.89286,1,<undefined>,0.78571,0.51072,0.9,<undefined>,0.50953,0.78571,0.31935,<undefined>,-0.036492,-0.22093,-0.17344,<undefined>,0.098477,0.41716,0.58368,<undefined>,0.89286,0.22654,0.89286,<undefined>,0.85714,0.28382,-0.0039482,<undefined>,-0.26961,0.35714,0.17857,<undefined>,0.71429,0.66667,-0.1,<undefined>,0.35714
famous,super,F02,S09,D,110,935,TRUE,s024,0.15909,0.011698,0.35294,<undefined>,0.36667,0.33333,0.3,<undefined>,0.36667,0.28382,0.066667,<undefined>,-0.041258,-0.082843,0.30556,<undefined>,0.3,-0.094281,0.23333,<undefined>,<undefined>,<undefined>,<undefined>,<undefined>,0.4,0.43333,0.43333,<undefined>,0.09375,0.46667,0.19048,<undefined>,0.36667,0,0.066667,<undefined>,-0.12192,-0.28093,0.049354,<undefined>,0.11716,0.23333,0.23333,<undefined>,0.3,0.4,0.23905,<undefined>,0.13333,0.033361,-0.1933,<undefined>,-0.033333,0,0.2,<undefined>,0.30556,-0.025,-0.36313,<undefined>
famous,super,F02,S10,A,74,616,TRUE,s025,<undefined>,0.25,0.64706,0.38636,<undefined>,0.76923,0.35935,0.88462,<undefined>,0.65385,0.46154,0.67364,<undefined>,0.21144,0.58333,0.26226,<undefined>,0.2385,0.69083,-0.087857,<undefined>,0.76923,0.89286,0.4,<undefined>,<undefined>,<undefined>,<undefined>,<undefined>,0.8,0.42857,0.50477,<undefined>,0.3143,0.26667,-0.041258,<undefined>,-0.17752,-0.068182,0.095413,<undefined>,0.66704,0.14178,1,<undefined>,1,-0.031863,0.82143,<undefined>,-0.0087141,-0.42565,-0.27497,<undefined>,0.23077,0.43905,0.80769,<undefined>,-0.125,-0.4195,0.33333
famous,super,F02,S10,B,27,669,TRUE,s026,0.45455,<undefined>,0.73529,0.45455,0.38165,<undefined>,0.29797,0.78571,0.59594,<undefined>,0.39286,0.58981,-0.055556,<undefined>,0.66667,0.26838,0.57143,<undefined>,0.69695,-0.1173,-0.035714,<undefined>,1,0.43333,<undefined>,<undefined>,<undefined>,<undefined>,0.51072,<undefined>,0.5,0.50953,0.78571,<undefined>,0.3,-0.036492,-0.22093,<undefined>,-0.045455,0.098477,0.41716,<undefined>,0.095939,0.89286,0.22654,<undefined>,-0.065301,0.85714,0.28382,<undefined>,-0.41993,-0.26961,0.35714,<undefined>,0.44477,0.71429,0.66667,<undefined>,-0.41499,0.35714
famous,super,F02,S10,C,37,686,TRUE,s027,0.45455,0.27273,<undefined>,0.45455,0.38165,0.67857,<undefined>,0.78571,0.59594,0.57143,<undefined>,0.58981,-0.055556,0.21716,<undefined>,0.26838,0.57143,0.18575,<undefined>,-0.1173,-0.035714,0.67857,<undefined>,0.43333,<undefined>,<undefined>,<undefined>,<undefined>,0.51072,0.9,<undefined>,0.50953,0.78571,0.31935,<undefined>,-0.036492,-0.22093,-0.17344,<undefined>,0.098477,0.41716,0.58368,<undefined>,0.89286,0.22654,0.89286,<undefined>,0.85714,0.28382,-0.0039482,<undefined>,-0.26961,0.35714,0.17857,<undefined>,0.71429,0.66667,-0.1,<undefined>,0.35714
famous,super,F02,S10,D,62,588,TRUE,s028,0.31818,0.22727,0.55882,<undefined>,0.5286,0.875,0.43096,<undefined>,0.58368,0.75,0.42308,<undefined>,-0.11111,0.20572,0.5,<undefined>,0.64286,0.2319,0.6847,<undefined>,0.041667,0.875,0.78571,<undefined>,<undefined>,<undefined>,<undefined>,<undefined>,0.5,0.7,0.35714,<undefined>,1,0.30926,0.23333,<undefined>,-0.24419,-0.18161,-0.090909,<undefined>,0.40572,0.7643,0.19526,<undefined>,0.34763,0.88462,0.006599,<undefined>,0.27239,-0.01348,-0.43137,<undefined>,0.5,0.29167,0.43333,<undefined>,0.5,-0.15,-0.42402,<undefined>
famous,super,F02,S11,A,132,796,TRUE,s029,<undefined>,0.045455,0.48573,0.30715,<undefined>,0.46875,0.125,0.5,<undefined>,0.3125,0.09375,0.71875,<undefined>,0.46875,0.40795,0.375,<undefined>,0.50536,0.75,-0.14997,<undefined>,0.46875,0.51072,0.09375,<undefined>,0.51072,0.51072,0.5,<undefined>,<undefined>,<undefined>,<undefined>,<undefined>,0.59328,0.38036,0.29684,<undefined>,0.11566,0.015598,-0.035714,<undefined>,0.625,-0.051777,0.50536,<undefined>,0.50536,-0.03125,0.4375,<undefined>,0.33333,-0.014245,0.14645,<undefined>,0.09375,0.15625,0.4375,<undefined>,-0.33284,-0.48568,0.11905
famous,super,F02,S11,B,139,742,TRUE,s030,0.52273,<undefined>,0.82353,0.52273,0.32288,<undefined>,0.24477,0.7,0.52288,<undefined>,0.33333,0.51716,-0.05079,<undefined>,0.75,0.21716,0.5,<undefined>,0.61716,-0.14281,-0.066667,<undefined>,0.9,0.46667,0.8,<undefined>,0.9,0.7,<undefined>,<undefined>,<undefined>,<undefined>,0.7,<undefined>,0.30572,-0.031726,-0.2093,<undefined>,-0.041555,0.10154,0.42288,<undefined>,0.05621,0.8,0.1781,<undefined>,-0.094281,0.76667,0.28954,<undefined>,-0.41421,-0.26425,0.3,<undefined>,0.45049,0.63333,0.75,<undefined>,-0.41047,0.36123
famous,super,F02,S11,C,36,1017,TRUE,s031,0.75,0.43182,<undefined>,0.65909,0.087769,0.28571,<undefined>,0.35714,0.23063,0.21429,<undefined>,0.22654,-0.10271,0.01634,<undefined>,0.012255,0.21429,-0.042833,<undefined>,-0.24486,-0.19048,0.28571,<undefined>,0.19048,0.42857,0.5,<undefined>,0.35714,<undefined>,<undefined>,<undefined>,<undefined>,0.35714,0.17554,<undefined>,-0.086367,-0.13953,-0.14484,<undefined>,0.11992,0.1592,0.22246,<undefined>,0.42857,-0.015639,0.42857,<undefined>,0.40476,0.063959,-0.058472,<undefined>,-0.31629,0.071429,-0.047619,<undefined>,0.30952,0.58368,-0.094537,<undefined>,0.38574
famous,super,F02,S11,D,42,854,TRUE,s032,0.34158,0.090909,0.54684,<undefined>,0.18573,0.41667,0.12064,<undefined>,0.28731,0.33333,0.13889,<undefined>,0.16667,0.41667,0.49605,<undefined>,0.33333,0.50477,0.66667,<undefined>,-0.13889,0.41667,0.50953,<undefined>,0.50477,0.50953,0.50953,<undefined>,<undefined>,<undefined>,<undefined>,<undefined>,0.5,0.45874,0.17143,<undefined>,-0.12791,0.16328,-0.12077,<undefined>,0.17143,0.5,-0.036492,<undefined>,0.065087,0.50477,-0.1619,<undefined>,0.060321,0.38889,-0.035674,<undefined>,0.16667,0.027778,0.19444,<undefined>,0.43096,-0.3,-0.58191,<undefined>
famous,super,F02,S12,A,117,634,TRUE,s033,<undefined>,0.22727,0.55882,0.31818,<undefined>,0.875,0.43096,1,<undefined>,0.75,0.42308,0.66704,<undefined>,0.20572,0.5,0.25613,<undefined>,0.2319,0.6847,-0.094456,<undefined>,0.875,0.78571,0.36667,<undefined>,0.78571,0.78571,1,<undefined>,0.7,0.35714,0.5,<undefined>,<undefined>,<undefined>,<undefined>,<undefined>,-0.18161,-0.090909,0.09235,<undefined>,0.7643,0.19526,0.88462,<undefined>,0.88462,0.006599,0.78571,<undefined>,-0.01348,-0.43137,-0.28033,<undefined>,0.29167,0.43333,0.91667,<undefined>,-0.15,-0.42402,0.30952
famous,super,F02,S12,B,93,839,TRUE,s034,0.14483,<undefined>,0.35885,0.18249,0.12269,<undefined>,0.029412,0.30926,0.29916,<undefined>,0,0.56387,-0.083333,<undefined>,0.28813,0.26471,0.21597,<undefined>,0.56892,0.23111,-0.20084,<undefined>,0.31935,0,0.3143,<undefined>,0.31935,0.30926,0.59328,<undefined>,0.17554,0.45874,<undefined>,<undefined>,<undefined>,<undefined>,-0.13953,<undefined>,0.068182,-0.043854,0.52941,<undefined>,-0.1126,0.3143,0.098328,<undefined>,-0.058824,0.25043,0.1622,<undefined>,0.089101,-0.12687,0.029412,<undefined>,0.058824,0.2748,0.22304,<undefined>,-0.12177,0.15103
famous,super,F02,S12,C,159,797,TRUE,s035,0.049354,-0.068182,<undefined>,0.049354,-0.033333,0.2,<undefined>,0.23333,0.1,0.16667,<undefined>,0.26667,-0.25,0.066667,<undefined>,-0.021895,0.1,0.26667,<undefined>,0.17239,0.33333,0.2,<undefined>,0.066667,0.26667,0.3,<undefined>,0.23333,0.38036,0.30572,<undefined>,0.17143,<undefined>,<undefined>,<undefined>,<undefined>,-0.093023,0.027895,<undefined>,-0.15459,0.17239,0.23333,<undefined>,0.26667,-0.033333,0.26667,<undefined>,0.3,-0.04379,0.22699,<undefined>,0.016085,-0.16667,-0.13333,<undefined>,0.16667,0.17143,-0.125,<undefined>,0.12313
famous,super,F02,S12,D,87,870,TRUE,s036,-0.10517,-0.31818,-0.045206,<undefined>,0.032544,-0.05079,-0.16667,<undefined>,-0.036492,-0.16667,-0.36111,<undefined>,-0.16667,-0.027778,-0.049972,<undefined>,-0.13412,0.28254,0.13017,<undefined>,0.13889,-0.05079,-0.036492,<undefined>,-0.041258,-0.036492,-0.036492,<undefined>,0.29684,-0.031726,-0.086367,<undefined>,<undefined>,<undefined>,<undefined>,<undefined>,-0.10066,0.2619,0.090909,<undefined>,-0.12936,0.042076,-0.092047,<undefined>,-0.13412,-0.041258,0.14842,<undefined>,-0.087282,0.42143,0.31509,<undefined>,-0.33333,-0.30556,-0.1619,<undefined>,-0.11506,-0.3,-0.49097,<undefined>
famous,super,F02,S13,A,85,2146,TRUE,s037,<undefined>,-0.40698,-0.18605,-0.16245,<undefined>,-0.25581,-0.30996,-0.24419,<undefined>,-0.31395,-0.34884,-0.18605,<undefined>,-0.30233,-0.19767,-0.23222,<undefined>,-0.18605,-0.17442,-0.16279,<undefined>,-0.25581,-0.22093,-0.12192,<undefined>,-0.22093,-0.22093,-0.24419,<undefined>,-0.2093,-0.13953,-0.12791,<undefined>,-0.13953,-0.093023,-0.10066,<undefined>,<undefined>,<undefined>,<undefined>,<undefined>,-0.19767,-0.081395,-0.23256,<undefined>,-0.23256,-0.069767,-0.26744,<undefined>,0.011628,-0.18605,-0.19368,<undefined>,-0.37209,-0.30233,-0.26744,<undefined>,-0.081395,0.11628,0
famous,super,F02,S13,B,148,1001,TRUE,s038,-0.21424,<undefined>,-0.18907,-0.25646,-0.18161,<undefined>,-0.33263,-0.18161,-0.17344,<undefined>,-0.37278,0.02451,-0.23401,<undefined>,-0.18499,-0.13877,-0.25712,<undefined>,0.028595,0.26599,-0.25782,<undefined>,-0.17344,-0.28093,-0.17752,<undefined>,-0.17344,-0.18161,0.11566,<undefined>,-0.14484,0.16328,-0.18161,<undefined>,0.027895,0.2619,<undefined>,<undefined>,<undefined>,<undefined>,0.01634,<undefined>,-0.17005,-0.17752,-0.27346,<undefined>,-0.18231,-0.22922,-0.098622,<undefined>,0.095238,0.03198,-0.34897,<undefined>,-0.34827,-0.2095,-0.24078,<undefined>,0.036065,0.075514
famous,super,F02,S13,C,107,1136,TRUE,s039,-0.094139,-0.22727,<undefined>,-0.20065,-0.2461,-0.11364,<undefined>,-0.090909,-0.13636,-0.22727,<undefined>,-0.08701,-0.46557,-0.29545,<undefined>,-0.29156,-0.18182,-0.08701,<undefined>,0.20455,0.15909,-0.11364,<undefined>,0.049354,-0.068182,-0.045455,<undefined>,-0.090909,0.015598,-0.041555,<undefined>,-0.12077,-0.090909,0.068182,<undefined>,0.090909,<undefined>,<undefined>,<undefined>,<undefined>,0.022727,-0.090909,<undefined>,-0.068182,-0.27273,-0.068182,<undefined>,-0.13636,-0.19675,0.2539,<undefined>,-0.15519,-0.18182,-0.15909,<undefined>,-0.13636,-0.10974,0.18182,<undefined>,0.34871
famous,super,F02,S13,D,109,1394,TRUE,s040,0.060225,-0.14286,0.086748,<undefined>,0.14286,0.089286,0,<undefined>,0.077556,0,-0.125,<undefined>,-0.28571,-0.19643,0.089811,<undefined>,0.035714,-0.0056019,0.035714,<undefined>,-0.26786,0.089286,0.098477,<undefined>,0.095413,0.098477,0.098477,<undefined>,-0.035714,0.10154,0.11992,<undefined>,0.09235,-0.043854,-0.15459,<undefined>,<undefined>,<undefined>,<undefined>,<undefined>,-0.089286,0.020921,0,<undefined>,-0.014793,0.095413,-0.26173,<undefined>,0.017857,0.17857,0.051033,<undefined>,-0.10714,-0.16071,0.017857,<undefined>,0.11073,0.071429,0.12859,<undefined>
famous,super,F02,S14,A,14,738,TRUE,s041,<undefined>,0.019497,0.3143,0.12923,<undefined>,0.4,0.033333,0.40572,<undefined>,0.32288,0.039052,0.26667,<undefined>,-0.016176,0.26906,-0.1,<undefined>,-0.055228,0.3,0.19526,<undefined>,0.4,0.41716,0.11716,<undefined>,0.41716,0.41716,0.40572,<undefined>,0.42288,0.1592,0.17143,<undefined>,0.52941,0.17239,-0.12936,<undefined>,0.01634,0.022727,-0.089286,<undefined>,<undefined>,<undefined>,<undefined>,<undefined>,0.41144,-0.027614,0.36193,<undefined>,0.13889,-0.23235,-0.4473,<undefined>,0.066667,0.066667,0.36667,<undefined>,-0.066421,-0.069143,0.047619
famous,super,F02,S14,B,39,588,TRUE,s042,0.18962,<undefined>,0.41681,0.2539,0.43096,<undefined>,0.33333,0.7643,0.5,<undefined>,0.26923,0.88462,0,<undefined>,0.34287,0.42857,0.54184,<undefined>,0.78571,-0.18458,-0.041667,<undefined>,0.58368,0.23333,0.66704,<undefined>,0.58368,0.7643,0.625,<undefined>,0.22246,0.5,0.7643,<undefined>,0.23333,0.042076,-0.19767,<undefined>,-0.090909,0.020921,<undefined>,<undefined>,<undefined>,<undefined>,0.34763,<undefined>,-0.038462,0.58368,0.16667,<undefined>,-0.24281,-0.10355,0.33333,<undefined>,0.3,0.71548,0.34287,<undefined>,-0.48568,0.19456
famous,super,F02,S14,C,123,563,TRUE,s043,-0.12077,-0.17402,<undefined>,-0.12077,0,0.18811,<undefined>,0.19526,0.012255,0.048816,<undefined>,0.051659,-0.42538,-0.3,<undefined>,-0.16019,0.095939,-0.19231,<undefined>,-0.038462,0.375,0.18811,<undefined>,0.23333,0.14178,0.095939,<undefined>,0.19526,-0.051777,0.05621,<undefined>,-0.036492,0.19526,-0.1126,<undefined>,-0.092047,-0.081395,-0.17005,<undefined>,0,<undefined>,<undefined>,<undefined>,<undefined>,0.13215,0.14178,<undefined>,0.095939,-0.1,-0.12854,<undefined>,-0.22855,-0.16667,-0.125,<undefined>,0.14645,-0.036492,-0.1,<undefined>,0.2619
famous,super,F02,S14,D,154,643,TRUE,s044,0.38636,0.25,0.64706,<undefined>,0.44947,0.76923,0.35935,<undefined>,0.58981,0.65385,0.46154,<undefined>,-0.083333,0.21144,0.58333,<undefined>,0.60714,0.2385,0.69083,<undefined>,0,0.76923,0.89286,<undefined>,1,0.89286,0.89286,<undefined>,0.50536,0.8,0.42857,<undefined>,0.88462,0.3143,0.26667,<undefined>,-0.23256,-0.17752,-0.068182,<undefined>,<undefined>,<undefined>,<undefined>,<undefined>,0.28243,1,-0.031863,<undefined>,0.2781,-0.0087141,-0.42565,<undefined>,0.42308,0.23077,0.43905,<undefined>,0.58333,-0.125,-0.4195,<undefined>
famous,super,F02,S15,A,148,744,TRUE,s045,<undefined>,-0.037656,0.098328,0,<undefined>,0.42469,0.5,0.34763,<undefined>,0.34763,0.19231,0.28243,<undefined>,-0.033333,0.065087,0.14286,<undefined>,0.083522,0.22654,-0.24283,<undefined>,0.42469,0.22654,0.3,<undefined>,0.22654,0.22654,0.34763,<undefined>,0.1781,-0.015639,0.065087,<undefined>,0.098328,-0.033333,-0.13412,<undefined>,-0.27346,-0.27273,-0.014793,<undefined>,0.34763,0.13215,0.28243,<undefined>,<undefined>,<undefined>,<undefined>,<undefined>,-0.11111,-0.25425,-0.16605,<undefined>,0.25,0.40572,0.34763,<undefined>,-0.2,-0.49471,0.11905
famous,super,F02,S15,B,72,782,TRUE,s046,0.38636,<undefined>,0.64706,0.38636,0.44947,<undefined>,0.35935,0.88462,0.58981,<undefined>,0.46154,0.67364,-0.083333,<undefined>,0.58333,0.26226,0.60714,<undefined>,0.69083,-0.087857,0,<undefined>,0.89286,0.4,1,<undefined>,0.89286,0.88462,0.50536,<undefined>,0.42857,0.50477,0.88462,<undefined>,0.26667,-0.041258,-0.23256,<undefined>,-0.068182,0.095413,0.41144,<undefined>,0.14178,1,<undefined>,<undefined>,<undefined>,<undefined>,0.2781,<undefined>,-0.42565,-0.27497,0.42308,<undefined>,0.43905,0.80769,0.58333,<undefined>,-0.4195,0.33333
famous,super,F02,S15,C,52,818,TRUE,s047,-0.22337,-0.29545,<undefined>,-0.22337,0.006599,0,<undefined>,0.006599,0.077556,-0.19231,<undefined>,-0.076923,-0.41108,-0.33333,<undefined>,-0.22549,0.077556,-0.18571,<undefined>,-0.031863,0.66045,0,<undefined>,0.23905,-0.031863,-0.065301,<undefined>,0.006599,-0.03125,-0.094281,<undefined>,-0.1619,0.006599,-0.058824,<undefined>,0.14842,-0.069767,-0.18231,<undefined>,-0.26173,-0.027614,-0.038462,<undefined>,-0.031863,<undefined>,<undefined>,<undefined>,<undefined>,-0.082843,0.060321,<undefined>,0.041973,-0.42308,-0.38462,<undefined>,-0.038462,-0.12936,0.054289,<undefined>,-0.087068
famous,super,F02,S15,D,91,882,TRUE,s048,0.36364,0.36364,0.61765,<undefined>,0.38165,0.67857,0.29797,<undefined>,0.51226,0.71429,0.32143,<undefined>,-0.10158,0.35049,0.55556,<undefined>,0.57143,0.14391,0.61327,<undefined>,-0.035714,0.67857,0.85714,<undefined>,0.82143,0.85714,0.85714,<undefined>,0.4375,0.76667,0.40476,<undefined>,0.78571,0.25043,0.3,<undefined>,-0.26744,-0.22922,-0.13636,<undefined>,0.36193,0.58368,0.095939,<undefined>,<undefined>,<undefined>,<undefined>,<undefined>,0.20572,-0.059504,-0.49804,<undefined>,0.35714,0.17857,0.36667,<undefined>,0.55556,-0.2,-0.47665,<undefined>
famous,super,F02,S17,A,85,1074,TRUE,s049,<undefined>,-0.055815,0.19666,0.11364,<undefined>,0.26667,0.3,0.27239,<undefined>,0.1,0.050491,0.13333,<undefined>,-0.26667,0.15795,0.033333,<undefined>,-0.13333,0.16667,-0.082843,<undefined>,0.26667,0.28382,0.13333,<undefined>,0.28382,0.28382,0.27239,<undefined>,0.28954,0.063959,0.060321,<undefined>,0.1622,-0.04379,-0.087282,<undefined>,-0.098622,-0.19675,0.017857,<undefined>,0.16667,-0.1,0.2781,<undefined>,0.2781,-0.082843,0.20572,<undefined>,<undefined>,<undefined>,<undefined>,<undefined>,0.050491,0.46193,0.24477,<undefined>,-0.22855,-0.39396,0.0081701
famous,super,F02,S17,B,47,1128,TRUE,s050,-0.078542,<undefined>,-0.022194,-0.048685,-0.11111,<undefined>,-0.16667,-0.01348,0.0095318,<undefined>,-0.27301,0.22699,-0.13412,<undefined>,-0.017428,0.055556,-0.10158,<undefined>,0.23175,0.060321,0.0047659,<undefined>,-0.0039482,0.033361,-0.0087141,<undefined>,-0.0039482,-0.01348,0.33333,<undefined>,-0.058472,0.38889,-0.01348,<undefined>,0.22699,0.42143,0.011628,<undefined>,0.2539,0.17857,0.13889,<undefined>,-0.12854,-0.0087141,-0.11111,<undefined>,0.060321,-0.059504,<undefined>,<undefined>,<undefined>,<undefined>,-0.27778,<undefined>,-0.19444,-0.046024,-0.049972,<undefined>,-0.29321,0.028595
famous,super,F02,S17,C,52,949,TRUE,s051,-0.44151,-0.57464,<undefined>,-0.26426,-0.054247,-0.43709,<undefined>,-0.43137,-0.15997,-0.54853,<undefined>,-0.14281,-0.10635,-0.2714,<undefined>,0.028595,-0.41993,0.15621,<undefined>,-0.016176,-0.16095,-0.43709,<undefined>,-0.1933,-0.42565,-0.41993,<undefined>,-0.43137,-0.014245,-0.41421,<undefined>,-0.035674,-0.43137,0.089101,<undefined>,0.31509,-0.18605,0.095238,<undefined>,0.051033,-0.23235,-0.24281,<undefined>,-0.42565,-0.25425,-0.42565,<undefined>,-0.49804,<undefined>,<undefined>,<undefined>,<undefined>,-0.66569,-0.60474,<undefined>,-0.47042,-0.19281,-0.19571,<undefined>,-0.11835
famous,super,F02,S17,D,49,1065,TRUE,s052,-0.32464,-0.4688,-0.2487,<undefined>,0.021447,-0.28569,-0.17678,<undefined>,-0.09283,-0.36872,-0.48392,<undefined>,0,-0.10892,-0.28567,<undefined>,-0.32138,0.25536,-0.0044417,<undefined>,0.067862,-0.28569,-0.26961,<undefined>,-0.27497,-0.26961,-0.26961,<undefined>,0.14645,-0.26425,-0.31629,<undefined>,-0.28033,-0.12687,0.016085,<undefined>,-0.19368,0.03198,-0.15519,<undefined>,-0.4473,-0.10355,-0.22855,<undefined>,-0.16605,-0.27497,0.041973,<undefined>,<undefined>,<undefined>,<undefined>,<undefined>,-0.5,-0.46875,-0.1973,<undefined>,-0.16108,-0.42071,-0.65789,<undefined>
famous,super,F02,S90,A,85,752,TRUE,s053,<undefined>,0.31818,0.20588,0.045455,<undefined>,0.45833,0,0.5,<undefined>,0.25,0.65385,0.26923,<undefined>,-0.1,0.22222,-0.14286,<undefined>,-0.038462,0.28571,-0.36482,<undefined>,0.45833,0.35714,-0.033333,<undefined>,0.35714,0.35714,0.5,<undefined>,0.3,0.071429,0.16667,<undefined>,0.029412,-0.16667,-0.33333,<undefined>,-0.34897,-0.18182,-0.10714,<undefined>,0.33333,-0.16667,0.42308,<undefined>,0.42308,-0.42308,0.35714,<undefined>,-0.27778,-0.66569,-0.5,<undefined>,<undefined>,<undefined>,<undefined>,<undefined>,0.15,-0.609,0.11905
famous,super,F02,S90,B,98,701,TRUE,s054,-0.068182,<undefined>,0.058824,-0.068182,0.20833,<undefined>,0.041667,0.29167,0.17857,<undefined>,0.46154,0.23077,-0.027778,<undefined>,0.083333,-0.10714,0.17857,<undefined>,0.17857,-0.29449,-0.36364,<undefined>,0.17857,0,0.23077,<undefined>,0.17857,0.29167,0.09375,<undefined>,-0.047619,0.027778,0.29167,<undefined>,-0.13333,-0.30556,-0.37209,<undefined>,-0.15909,-0.16071,0.066667,<undefined>,-0.125,0.23077,0.25,<undefined>,-0.38462,0.17857,0.050491,<undefined>,-0.60474,-0.46875,<undefined>,<undefined>,<undefined>,<undefined>,0.027778,<undefined>,-0.56089,0
famous,super,F02,S90,C,35,879,TRUE,s055,0.14806,0.30325,<undefined>,0.20455,0.56667,0.4,<undefined>,0.43333,0.63333,0.23333,<undefined>,0.26667,0.027778,-0.13333,<undefined>,0.1,0.41716,-0.055228,<undefined>,-0.31519,-0.066667,0.4,<undefined>,0.2,0.43905,0.44477,<undefined>,0.43333,0.15625,0.45049,<undefined>,0.19444,0.43333,0.058824,<undefined>,-0.1619,-0.30233,-0.34827,<undefined>,0.017857,0.066667,0.3,<undefined>,0.43905,0.40572,0.43905,<undefined>,0.36667,0.46193,-0.19444,<undefined>,-0.1973,<undefined>,<undefined>,<undefined>,<undefined>,0.52778,0.10429,<undefined>,0.14286
famous,super,F02,S90,D,65,840,TRUE,s056,0.27273,0.18182,0.5,<undefined>,0.47978,0.875,0.38215,<undefined>,0.54184,0.66667,0.5,<undefined>,-0.055556,0.16667,0.44444,<undefined>,0.64286,0.18684,0.64286,<undefined>,0.041667,0.875,0.71429,<undefined>,0.80769,0.71429,0.71429,<undefined>,0.4375,0.63333,0.30952,<undefined>,0.91667,0.2748,0.16667,<undefined>,-0.26744,-0.2095,-0.13636,<undefined>,0.36667,0.71548,0.14645,<undefined>,0.34763,0.80769,-0.038462,<undefined>,0.24477,-0.046024,-0.47042,<undefined>,<undefined>,<undefined>,<undefined>,<undefined>,0.44444,-0.1,-0.45485,<undefined>
famous,super,F02,S91,A,73,1090,TRUE,s057,<undefined>,0.22727,0.72699,0.59091,<undefined>,0.41667,0.27778,0.5,<undefined>,0.33333,0.19444,0.34763,<undefined>,0.1024,0.73175,0.097631,<undefined>,0.033361,0.43096,-0.20234,<undefined>,0.41667,0.66667,0.30556,<undefined>,0.66667,0.66667,0.5,<undefined>,0.75,0.58368,0.43096,<undefined>,0.22304,0.17143,-0.11506,<undefined>,-0.24078,-0.10974,0.11073,<undefined>,0.34287,-0.036492,0.58333,<undefined>,0.58333,-0.12936,0.55556,<undefined>,-0.049972,-0.19281,-0.16108,<undefined>,0.027778,0.52778,0.44444,<undefined>,<undefined>,<undefined>,<undefined>
famous,super,F02,S91,B,125,1152,TRUE,s058,-0.13959,<undefined>,-0.10784,-0.2227,-0.2,<undefined>,-0.12071,-0.15,-0.15,<undefined>,0.225,-0.275,-0.0035534,<undefined>,-0.11213,-0.40355,-0.1,<undefined>,-0.25,0.075,0.025,<undefined>,-0.1,-0.025,-0.125,<undefined>,-0.1,-0.15,-0.33284,<undefined>,-0.094537,-0.3,-0.15,<undefined>,-0.125,-0.3,-0.081395,<undefined>,0.18182,0.071429,-0.066421,<undefined>,-0.1,-0.125,-0.2,<undefined>,0.054289,-0.2,-0.22855,<undefined>,-0.19571,-0.42071,0.15,<undefined>,0.10429,-0.1,<undefined>,<undefined>,<undefined>,<undefined>
famous,super,F02,S91,C,4,1095,TRUE,s059,-0.40708,-0.64672,<undefined>,-0.50579,-0.51651,-0.42853,<undefined>,-0.42402,-0.40222,-0.51651,<undefined>,-0.512,-0.91202,-0.71878,<undefined>,-0.68344,-0.41499,-0.63532,<undefined>,0.11429,-0.1797,-0.42853,<undefined>,-0.36313,-0.4195,-0.41499,<undefined>,-0.42402,-0.48568,-0.41047,<undefined>,-0.58191,-0.42402,-0.12177,<undefined>,-0.49097,0.11628,0.036065,<undefined>,0.12859,-0.069143,-0.48568,<undefined>,-0.4195,-0.49471,-0.4195,<undefined>,-0.47665,-0.39396,-0.29321,<undefined>,-0.65789,-0.609,-0.56089,<undefined>,-0.45485,<undefined>,<undefined>,<undefined>,<undefined>
famous,super,F02,S91,D,48,1170,TRUE,s060,0.29222,0.068182,0.34967,<undefined>,0.14694,0.28571,0.0040851,<undefined>,0.14694,0.16667,0,<undefined>,-0.2619,-0.095238,0.34559,<undefined>,0.21429,-0.070728,0.21429,<undefined>,-0.095238,0.28571,0.35714,<undefined>,0.33333,0.35714,0.35714,<undefined>,0.11905,0.36123,0.38574,<undefined>,0.30952,0.15103,0.12313,<undefined>,0,0.075514,0.34871,<undefined>,0.047619,0.19456,0.2619,<undefined>,0.11905,0.33333,-0.087068,<undefined>,0.0081701,0.028595,-0.11835,<undefined>,0.11905,0,0.14286,<undefined>,<undefined>,<undefined>,<undefined>,<undefined>
famous,super,F03,S01,A,120,1023,TRUE,s001,<undefined>,<undefined>,<undefined>,<undefined>,<undefined>,0.29916,0.23529,0.64706,<undefined>,0.2513,0.12774,0.098328,<undefined>,0.70588,-0.065461,0.73529,<undefined>,0.37817,0.5,0.35417,<undefined>,0.21093,-0.029412,0.17229,<undefined>,0.13279,0.22607,0.14447,<undefined>,0.1168,0.1386,-0.012484,<undefined>,0.45188,0.029412,0.35294,<undefined>,-0.098373,0.055719,-0.1194,<undefined>,0.0803,0.22102,0.28731,<undefined>,0.35294,0.12269,0.098328,<undefined>,-0.025,0.038325,0.12313,<undefined>,0.10337,0.1622,0.17229,<undefined>,0.055308,-0.11724,0.34945
famous,super,F03,S01,B,103,1000,TRUE,s002,<undefined>,<undefined>,<undefined>,<undefined>,0.25,<undefined>,0.125,0.12145,0.325,<undefined>,0.325,0.35,0.35429,<undefined>,0.25,-0.044975,-0.14497,<undefined>,-0.074264,-0.076184,-0.34069,<undefined>,0.1,0.38358,0.625,<undefined>,0.4,0.7,-0.13211,<undefined>,0.75,0.28125,-0.12782,<undefined>,-0.35355,-0.057843,-0.014273,<undefined>,-0.25188,-0.12687,0.275,<undefined>,0.34216,0.35185,0.4,<undefined>,0.25,0.28787,-0.2614,<undefined>,0.15976,0.16667,0.2,<undefined>,0.375,0.525,-0.31968,<undefined>,-0.051777,-0.16591
famous,super,F03,S01,C,77,1061,TRUE,s003,<undefined>,<undefined>,<undefined>,<undefined>,0.071429,0.21429,<undefined>,0.091854,0.22654,0.71429,<undefined>,0.30952,0.31361,-0.014938,<undefined>,-0.038748,-0.37208,-0.32785,<undefined>,-0.048202,-0.44689,0.14286,<undefined>,0.38095,0.57143,0.35714,<undefined>,0.64286,-0.093836,0.64162,<undefined>,0.32812,-0.35574,-0.051003,<undefined>,-0.078898,-0.068483,-0.25908,<undefined>,-0.11066,0.2381,0.28233,<undefined>,0.40741,0.35714,-0.011554,<undefined>,0.25035,-0.31221,0.071429,<undefined>,0.32178,0.087769,0.38095,<undefined>,0.47619,-0.38293,0.65963,<undefined>,-0.14008
famous,super,F03,S01,D,42,1926,TRUE,s004,<undefined>,<undefined>,<undefined>,<undefined>,-0.016129,-0.016129,-0.096774,<undefined>,0.032258,0.32258,0.032258,<undefined>,0.051154,-0.17141,0.30645,<undefined>,-0.31657,-0.35666,-0.22533,<undefined>,-0.42394,-0.064516,-0.1129,<undefined>,0.22581,0.17742,0.080645,<undefined>,-0.22486,0.53503,0.46774,<undefined>,-0.3055,-0.15805,-0.43224,<undefined>,0.03071,-0.19413,-0.19212,<undefined>,0,0.029966,0.043327,<undefined>,0.080645,-0.16912,-0.016129,<undefined>,-0.34606,-0.1129,-0.090765,<undefined>,-0.061749,0.096774,0.064516,<undefined>,-0.4018,0.58065,-0.16864,<undefined>
famous,super,F03,S02,A,65,675,TRUE,s005,<undefined>,0.25,0.071429,-0.016129,<undefined>,<undefined>,<undefined>,<undefined>,<undefined>,0.20588,0.44695,0.57143,<undefined>,0.15715,0.125,0.17233,<undefined>,-0.44638,-0.14286,-0.20833,<undefined>,0.39286,0.071429,0.18152,<undefined>,0.57143,0.42857,0.2643,<undefined>,0.15217,0.1,-0.125,<undefined>,-0.23684,-0.43872,-0.10714,<undefined>,-0.31038,-0.27712,-0.29467,<undefined>,0.071429,0.3,-0.055556,<undefined>,0.13165,0.41124,0.32756,<undefined>,-0.22071,-0.11297,0.21429,<undefined>,0.36667,0.47654,0.3,<undefined>,0.15217,-0.093443,-0.20824
famous,super,F03,S02,B,30,782,TRUE,s006,0.29916,<undefined>,0.21429,-0.016129,<undefined>,<undefined>,<undefined>,<undefined>,0.5,<undefined>,0.5,0.42857,0.57692,<undefined>,0.125,0.16161,-0.17259,<undefined>,0.1847,-0.034518,-0.32522,<undefined>,0.25,0.32353,0.5,<undefined>,0.75,0.33333,0.049597,<undefined>,0.25,-0.03125,-0.25444,<undefined>,-0.32496,0.40441,0.029412,<undefined>,-0.16667,-0.27612,0.42308,<undefined>,0.5,0.055556,0.75,<undefined>,0.5,0.42857,-0.0933,<undefined>,-0.13636,0.15511,0.38215,<undefined>,0.57692,0.5,-0.39181,<undefined>,-0.041667,-0.031863
famous,super,F03,S02,C,75,594,TRUE,s007,0.23529,0.125,<undefined>,-0.096774,<undefined>,<undefined>,<undefined>,<undefined>,0.46154,0.23529,<undefined>,0.39286,0.46154,0.058824,<undefined>,0.09375,-0.26307,-0.28569,<undefined>,-0.079759,-0.40875,0.88889,<undefined>,0.23529,0.33333,0.39286,<undefined>,0.19444,-0.014273,0.043478,<undefined>,-0.10938,-0.3223,0,<undefined>,0.23077,-0.10294,-0.30682,<undefined>,-0.31343,0.46154,0.095238,<undefined>,-0.037037,0.54167,0.45455,<undefined>,0.39286,-0.20474,-0.125,<undefined>,0.095238,0.45833,0.33333,<undefined>,0.33333,-0.44351,0.043478,<undefined>,-0.073624
famous,super,F03,S02,D,51,781,TRUE,s008,0.64706,0.12145,0.091854,<undefined>,<undefined>,<undefined>,<undefined>,<undefined>,0.32089,0.23111,0.32089,<undefined>,0.36595,0.47059,0.017872,<undefined>,0.25057,0.15181,0.60714,<undefined>,0.12971,0.42968,0.11538,<undefined>,0.3286,0.3041,0.44947,<undefined>,0.39749,0.10188,0.12145,<undefined>,0.078585,0.31579,-0.070324,<undefined>,-0.097895,-0.18928,-0.010948,<undefined>,0.27583,0.091854,0.25049,<undefined>,0.44947,0.61538,0.31429,<undefined>,-0.055228,-0.075,-0.041555,<undefined>,0.26923,0.25049,0.36595,<undefined>,-0.11018,0.040388,-0.16309,<undefined>
famous,super,F03,S03,A,124,786,TRUE,s009,<undefined>,0.325,0.22654,0.032258,<undefined>,0.5,0.46154,0.32089,<undefined>,<undefined>,<undefined>,<undefined>,<undefined>,-0.024366,0.13572,-0.020527,<undefined>,-0.076745,-0.023459,-0.10417,<undefined>,0.53846,0.26923,0.41176,<undefined>,0.67857,0.66704,0.34763,<undefined>,0.21739,0.26287,-0.023208,<undefined>,-0.10526,-0.37802,0.04506,<undefined>,-0.21591,-0.25,-0.20896,<undefined>,0.19865,0.43905,0.065087,<undefined>,0.28903,0.88462,0.53571,<undefined>,-0.175,-0.041555,0.095238,<undefined>,0.57239,0.89121,0.51716,<undefined>,0.21739,-0.020833,-0.14395
famous,super,F03,S03,B,12,1021,TRUE,s010,0.2513,<undefined>,0.71429,0.32258,0.20588,<undefined>,0.23529,0.23111,<undefined>,<undefined>,<undefined>,<undefined>,0.48068,<undefined>,0.39583,0.069782,-0.34198,<undefined>,0.0008658,0.035131,-0.4344,<undefined>,0.20588,0.58824,0.82353,<undefined>,0.55882,0.75953,0.0017316,<undefined>,0.775,0.29688,-0.3218,<undefined>,-0.44954,0.020185,-0.0096596,<undefined>,-0.17998,-0.1194,0.41176,<undefined>,0.49077,0.44444,0.55882,<undefined>,0.30926,0.4269,-0.26802,<undefined>,-0.025958,0.33333,0.22607,<undefined>,0.48068,0.70588,-0.43055,<undefined>,-0.14879,-0.063159
famous,super,F03,S03,C,84,837,TRUE,s011,0.12774,0.325,<undefined>,0.032258,0.44695,0.5,<undefined>,0.32089,<undefined>,<undefined>,<undefined>,<undefined>,0.58352,-0.024366,<undefined>,-0.020527,-0.18458,-0.076745,<undefined>,-0.10417,-0.087857,0.53846,<undefined>,0.41176,0.51716,0.67857,<undefined>,0.34763,-0.12183,0.21739,<undefined>,-0.023208,-0.32675,-0.10526,<undefined>,0.04506,-0.0563,-0.21591,<undefined>,-0.20896,0.69231,0.19865,<undefined>,0.065087,0.66704,0.28903,<undefined>,0.53571,-0.099019,-0.175,<undefined>,0.095238,0.77583,0.57239,<undefined>,0.51716,-0.24486,0.21739,<undefined>,-0.14395
famous,super,F03,S03,D,140,839,TRUE,s012,0.098328,0.35,0.30952,<undefined>,0.57143,0.42857,0.39286,<undefined>,<undefined>,<undefined>,<undefined>,<undefined>,0.53571,0.31935,0.375,<undefined>,-0.39181,-0.40977,-0.059173,<undefined>,-0.54587,0.46429,0.21429,<undefined>,0.63333,0.5,0.64286,<undefined>,-0.15124,0.23913,0.35,<undefined>,-0.46783,-0.13158,-0.43872,<undefined>,-0.14706,-0.3159,-0.26667,<undefined>,0.51838,0.21429,0.43333,<undefined>,0.64286,0.20308,0.39898,<undefined>,-0.39902,-0.091421,-0.18182,<undefined>,0.29797,0.64477,0.53571,<undefined>,-0.55439,0.23913,-0.125,<undefined>
famous,super,F03,S04,A,94,865,TRUE,s013,<undefined>,0.35429,0.31361,0.051154,<undefined>,0.57692,0.46154,0.36595,<undefined>,0.48068,0.58352,0.53571,<undefined>,<undefined>,<undefined>,<undefined>,<undefined>,-0.32675,0.018383,-0.0625,<undefined>,0.53846,0.34615,0.35294,<undefined>,0.67857,0.77583,0.50477,<undefined>,0.24286,0.33358,0.020987,<undefined>,-0.052632,-0.21644,0.090121,<undefined>,-0.24805,-0.23047,-0.20896,<undefined>,0.26599,0.53333,0.11747,<undefined>,0.28903,0.5132,0.58981,<undefined>,-0.125,0.049354,0.14286,<undefined>,0.53333,0.69231,0.61144,<undefined>,0.24286,-0.079759,-0.12142
famous,super,F03,S04,B,71,1016,TRUE,s014,0.70588,<undefined>,-0.014938,-0.17141,0.15715,<undefined>,0.058824,0.47059,-0.024366,<undefined>,-0.024366,0.31935,<undefined>,<undefined>,<undefined>,<undefined>,0.24034,<undefined>,0.44118,0.22917,0.23111,<undefined>,-0.043685,0.054643,0.089101,<undefined>,0.073962,0.0008177,0.52941,<undefined>,0.0093146,-0.09329,0.20588,<undefined>,-0.088235,0.29412,-0.13235,<undefined>,-0.05,-0.1791,-0.018453,<undefined>,-0.048731,0.19154,0.073962,<undefined>,-0.029412,-0.043685,0.010093,<undefined>,-0.11364,0.22654,-0.088235,<undefined>,0.010093,0.020185,-0.0033842,<undefined>,-0.1875,0.25
famous,super,F03,S04,C,41,1543,TRUE,s015,-0.065461,0.25,<undefined>,0.30645,0.125,0.125,<undefined>,0.017872,0.13572,0.39583,<undefined>,0.375,<undefined>,<undefined>,<undefined>,<undefined>,-0.38807,-0.41544,<undefined>,0.18811,-0.45353,0.0625,<undefined>,0.15298,0.35417,0.20833,<undefined>,0.29167,-0.24224,0.3125,<undefined>,0.46875,-0.447,-0.20476,<undefined>,-0.13154,-0.20588,-0.20226,<undefined>,-0.20149,0.14583,0.086908,<undefined>,0.42593,0.25,-0.07261,<undefined>,0.1393,-0.3845,-0.061887,<undefined>,0.35121,0.014298,0.31965,<undefined>,0.4375,-0.6202,0.35417,<undefined>,-0.2879
famous,super,F03,S04,D,99,983,TRUE,s016,0.73529,-0.044975,-0.038748,<undefined>,0.17233,0.16161,0.09375,<undefined>,-0.020527,0.069782,-0.020527,<undefined>,<undefined>,<undefined>,<undefined>,<undefined>,0.28661,0.33395,0.5,<undefined>,0.27681,0.067862,-0.015165,<undefined>,0.10003,-0.015165,0.083947,<undefined>,0.55882,-0.017369,-0.015685,<undefined>,0.25,0.28947,-0.0625,<undefined>,-0.11765,-0.15909,-0.033333,<undefined>,-0.024968,-0.038748,-0.046415,<undefined>,0.083947,0.29197,-0.025888,<undefined>,0.041973,-0.020711,-0.090909,<undefined>,-0.0625,0.074143,0.016085,<undefined>,0.020425,-0.078857,-0.20833,<undefined>
famous,super,F03,S07,A,86,767,TRUE,s017,<undefined>,-0.14497,-0.37208,-0.31657,<undefined>,-0.17259,-0.26307,0.25057,<undefined>,-0.34198,-0.18458,-0.39181,<undefined>,0.24034,-0.38807,0.28661,<undefined>,<undefined>,<undefined>,<undefined>,<undefined>,-0.29759,0.028595,-0.092416,<undefined>,-0.13568,-0.27614,-0.35076,<undefined>,-0.17327,-0.36569,-0.32767,<undefined>,0.21504,0.083333,0.19231,<undefined>,-0.15909,-0.080474,-0.29104,<undefined>,-0.37208,-0.35997,-0.086238,<undefined>,0.070262,-0.15829,-0.11835,<undefined>,0,0.090909,-0.27346,<undefined>,-0.2933,-0.18458,-0.32091,<undefined>,-0.23476,-0.041667,-0.015931
famous,super,F03,S07,B,15,1020,TRUE,s018,0.37817,<undefined>,-0.32785,-0.35666,-0.44638,<undefined>,-0.28569,0.15181,-0.076745,<undefined>,-0.076745,-0.40977,-0.32675,<undefined>,-0.41544,0.33395,<undefined>,<undefined>,<undefined>,<undefined>,0.65625,<undefined>,-0.14017,-0.082323,-0.27941,<undefined>,-0.2955,-0.3317,0.51009,<undefined>,-0.31924,-0.29864,0.25,<undefined>,-0.0625,0.19286,-0.083189,<undefined>,-0.080474,-0.17164,-0.11336,<undefined>,-0.42586,-0.051833,-0.2955,<undefined>,-0.082107,0.0062816,0.21875,<undefined>,0,-0.22584,-0.056218,<undefined>,-0.13925,-0.35263,0.2898,<undefined>,0.10774,0.18298
famous,super,F03,S07,C,106,928,TRUE,s019,0.5,-0.074264,<undefined>,-0.22533,-0.14286,0.1847,<undefined>,0.60714,-0.023459,0.0008658,<undefined>,-0.059173,0.018383,0.44118,<undefined>,0.5,<undefined>,<undefined>,<undefined>,<undefined>,0.27451,0.077556,<undefined>,-0.0235,0.067648,-0.017331,<undefined>,-0.02696,0.5,-0.068307,<undefined>,-0.14553,0.1875,0.55263,<undefined>,0.32143,-0.14201,-0.20455,<undefined>,-0.24627,-0.065301,-0.094537,<undefined>,0.12963,0.095939,0.25,<undefined>,-0.059173,-0.021895,0.1,<undefined>,0.14694,-0.071429,-0.049509,<undefined>,0.028595,-0.043534,-0.12979,<undefined>,0.15385
famous,super,F03,S07,D,60,1435,TRUE,s020,0.35417,-0.076184,-0.048202,<undefined>,-0.20833,-0.034518,-0.079759,<undefined>,-0.10417,0.035131,-0.10417,<undefined>,-0.0625,0.22917,0.18811,<undefined>,<undefined>,<undefined>,<undefined>,<undefined>,-0.023794,-0.0625,-0.125,<undefined>,0.027982,-0.083333,0,<undefined>,0.21191,-0.065461,0.045854,<undefined>,0,0.22917,0.125,<undefined>,0.11765,0.043839,0.1,<undefined>,-0.14583,0.059539,0.16013,<undefined>,0,0.020833,-0.125,<undefined>,0.15298,-0.12081,0.097631,<undefined>,-0.16667,-0.020833,-0.0625,<undefined>,-0.16605,-0.041053,-0.18689,<undefined>
famous,super,F03,S09,A,133,811,TRUE,s021,<undefined>,-0.34069,-0.44689,-0.42394,<undefined>,-0.32522,-0.40875,0.12971,<undefined>,-0.4344,-0.087857,-0.54587,<undefined>,0.23111,-0.45353,0.27681,<undefined>,0.65625,0.27451,-0.023794,<undefined>,<undefined>,<undefined>,<undefined>,<undefined>,-0.33158,-0.42081,-0.33252,<undefined>,-0.31799,-0.44424,-0.37676,<undefined>,0.12332,0.038462,0.18024,<undefined>,-0.056818,-0.05,-0.20896,<undefined>,-0.31699,-0.4,-0.14443,<undefined>,-0.037329,-0.094456,-0.12955,<undefined>,-0.19571,0.022727,-0.29727,<undefined>,-0.37042,-0.19664,-0.42565,<undefined>,-0.37947,0.10417,0.032429
famous,super,F03,S09,B,116,687,TRUE,s022,0.21093,<undefined>,0.14286,-0.064516,0.39286,<undefined>,0.88889,0.42968,0.53846,<undefined>,0.53846,0.46429,0.53846,<undefined>,0.0625,0.067862,-0.29759,<undefined>,0.077556,-0.0625,<undefined>,<undefined>,<undefined>,<undefined>,0.4,<undefined>,0.625,0.25,-0.038638,<undefined>,0.175,-0.078125,-0.34819,<undefined>,-0.42279,0.15385,-0.10294,<undefined>,-0.21667,-0.29851,0.53846,<undefined>,0.4,0,0.625,<undefined>,0.625,0.46429,-0.2714,<undefined>,-0.11364,0.14286,0.50715,<undefined>,0.53846,0.4,-0.46323,<undefined>,-0.22917,-0.089555
famous,super,F03,S09,C,23,758,TRUE,s023,-0.029412,0.1,<undefined>,-0.1129,0.071429,0.25,<undefined>,0.11538,0.26923,0.20588,<undefined>,0.21429,0.34615,-0.043685,<undefined>,-0.015165,0.028595,-0.14017,<undefined>,-0.125,<undefined>,<undefined>,<undefined>,<undefined>,0.3,0.28571,<undefined>,0.16667,-0.043685,0.021739,<undefined>,-0.125,-0.14017,0.10978,<undefined>,0.34615,-0.058824,-0.29545,<undefined>,-0.3209,0.19231,0.071429,<undefined>,-0.055556,0.5,0.041667,<undefined>,0.28571,0.028595,0.058579,<undefined>,0.012255,0.16667,0.23333,<undefined>,0.3,-0.33263,0.021739,<undefined>,-0.20164
famous,super,F03,S09,D,108,1000,TRUE,s024,0.17229,0.38358,0.38095,<undefined>,0.18152,0.32353,0.23529,<undefined>,0.41176,0.58824,0.41176,<undefined>,0.35294,0.054643,0.15298,<undefined>,-0.092416,-0.082323,-0.0235,<undefined>,<undefined>,<undefined>,<undefined>,<undefined>,0.52941,0.39245,0.44118,<undefined>,0.054643,0.30435,0.425,<undefined>,-0.22434,0.14512,-0.32771,<undefined>,-0.044118,-0.25746,-0.13047,<undefined>,0.47059,0.14286,0.29412,<undefined>,0.44118,0.23529,0.35799,<undefined>,0.0059121,0.23358,0.019497,<undefined>,0.2748,0.52941,0.47059,<undefined>,-0.29248,0.30435,0.020833,<undefined>
famous,super,F03,S10,A,69,745,TRUE,s025,<undefined>,0.625,0.57143,0.22581,<undefined>,0.5,0.33333,0.3286,<undefined>,0.82353,0.51716,0.63333,<undefined>,0.089101,0.35417,0.10003,<undefined>,-0.27941,0.067648,0.027982,<undefined>,0.4,0.3,0.52941,<undefined>,<undefined>,<undefined>,<undefined>,<undefined>,0.47826,0.625,0.20312,<undefined>,0.039861,-0.44281,0.089543,<undefined>,-0.28019,-0.1857,-0.16418,<undefined>,0.3694,0.62288,0.33333,<undefined>,0.18382,0.41716,0.55049,<undefined>,-0.025,-0.033756,0.28571,<undefined>,0.73333,0.61144,0.86667,<undefined>,0.47826,-0.15594,-0.069758
famous,super,F03,S10,B,85,688,TRUE,s026,0.13279,<undefined>,0.35714,0.17742,0.57143,<undefined>,0.39286,0.3041,0.67857,<undefined>,0.67857,0.5,0.67857,<undefined>,0.20833,-0.015165,-0.13568,<undefined>,-0.017331,-0.083333,-0.33158,<undefined>,0.28571,0.39245,<undefined>,<undefined>,<undefined>,<undefined>,-0.11678,<undefined>,0.4,0.0625,-0.13388,<undefined>,-0.34996,0.047969,-0.053777,<undefined>,-0.24714,-0.23134,0.54797,<undefined>,0.5,0.16667,0.71429,<undefined>,0.57143,0.51226,-0.22663,<undefined>,0.098708,0.11905,0.47041,<undefined>,0.75,0.63333,-0.38364,<undefined>,-0.125,-0.14065
famous,super,F03,S10,C,148,589,TRUE,s027,0.22607,0.4,<undefined>,0.080645,0.42857,0.75,<undefined>,0.44947,0.66704,0.55882,<undefined>,0.64286,0.77583,0.073962,<undefined>,0.083947,-0.27614,-0.2955,<undefined>,0,-0.42081,0.625,<undefined>,0.44118,<undefined>,<undefined>,<undefined>,<undefined>,-0.0235,0.28261,<undefined>,0.0625,-0.33211,0.026316,<undefined>,0.17364,-0.058824,-0.29545,<undefined>,-0.23134,0.65385,0.35714,<undefined>,0.16667,1,0.35478,<undefined>,0.61327,-0.25425,-0.1,<undefined>,0.21429,0.5286,0.63333,<undefined>,0.7,-0.45098,0.28261,<undefined>,-0.079656
famous,super,F03,S10,D,39,868,TRUE,s028,0.14447,0.7,0.64286,<undefined>,0.2643,0.33333,0.19444,<undefined>,0.34763,0.75953,0.34763,<undefined>,0.50477,0.0008177,0.29167,<undefined>,-0.35076,-0.3317,-0.02696,<undefined>,-0.33252,0.25,0.16667,<undefined>,<undefined>,<undefined>,<undefined>,<undefined>,-0.09123,0.54348,0.63787,<undefined>,-0.31822,-0.039086,-0.21664,<undefined>,-0.043685,-0.20616,-0.2357,<undefined>,0.36111,0.29797,0.43573,<undefined>,0.5,0.069853,0.2643,<undefined>,-0.2214,-0.020711,0.15196,<undefined>,0.18573,0.52778,0.4262,<undefined>,-0.22444,0.54348,-0.017259,<undefined>
famous,super,F03,S11,A,129,811,TRUE,s029,<undefined>,-0.13211,-0.093836,-0.22486,<undefined>,0.049597,-0.014273,0.39749,<undefined>,0.0017316,-0.12183,-0.15124,<undefined>,0.52941,-0.24224,0.55882,<undefined>,0.51009,0.5,0.21191,<undefined>,-0.038638,-0.043685,0.054643,<undefined>,-0.11678,-0.0235,-0.09123,<undefined>,<undefined>,<undefined>,<undefined>,<undefined>,0.47368,-0.088235,0.35294,<undefined>,-0.052919,-0.05,-0.1194,<undefined>,-0.12173,-0.14619,0.13017,<undefined>,0.15211,-0.12687,0.010958,<undefined>,-0.025,0.068182,-0.011554,<undefined>,-0.14619,-0.087369,-0.077277,<undefined>,-0.12915,-0.08272,0.37198
famous,super,F03,S11,B,3,1145,TRUE,s030,0.1168,<undefined>,0.64162,0.53503,0.15217,<undefined>,0.043478,0.10188,0.21739,<undefined>,0.21739,0.23913,0.24286,<undefined>,0.3125,-0.017369,-0.17327,<undefined>,-0.068307,-0.065461,-0.31799,<undefined>,0.021739,0.30435,0.47826,<undefined>,0.28261,0.54348,<undefined>,<undefined>,<undefined>,<undefined>,-0.13288,<undefined>,-0.39066,-0.11552,-0.018886,<undefined>,-0.23521,-0.086991,0.17391,<undefined>,0.23231,0.40741,0.28261,<undefined>,0.15217,0.1851,-0.29252,<undefined>,0.069587,0.26087,0.1087,<undefined>,0.26087,0.3913,-0.28815,<undefined>,-0.058312,-0.07909
famous,super,F03,S11,C,157,985,TRUE,s031,0.1386,0.75,<undefined>,0.46774,0.1,0.25,<undefined>,0.12145,0.26287,0.775,<undefined>,0.35,0.33358,0.0093146,<undefined>,-0.015685,-0.36569,-0.31924,<undefined>,0.045854,-0.44424,0.175,<undefined>,0.425,0.625,0.4,<undefined>,0.63787,<undefined>,<undefined>,<undefined>,<undefined>,-0.34853,0.030025,<undefined>,-0.057843,-0.0020902,-0.27044,<undefined>,-0.073346,0.275,0.30614,<undefined>,0.53704,0.4,0.012868,<undefined>,0.28787,-0.30282,0.1,<undefined>,0.40476,0.11716,0.425,<undefined>,0.525,-0.4183,0.76087,<undefined>,-0.053261
famous,super,F03,S11,D,83,1743,TRUE,s032,-0.012484,0.28125,0.32812,<undefined>,-0.125,-0.03125,-0.10938,<undefined>,-0.023208,0.29688,-0.023208,<undefined>,0.020987,-0.09329,0.46875,<undefined>,-0.32767,-0.29864,-0.14553,<undefined>,-0.37676,-0.078125,-0.125,<undefined>,0.20312,0.0625,0.0625,<undefined>,<undefined>,<undefined>,<undefined>,<undefined>,-0.31694,-0.080346,-0.40311,<undefined>,-0.17856,-0.10907,-0.098192,<undefined>,-0.015625,0.050016,0.026348,<undefined>,0.0625,-0.091069,-0.070083,<undefined>,-0.3616,-0.125,-0.14017,<undefined>,-0.11428,0.10938,0.020987,<undefined>,-0.35531,0.35938,-0.25444,<undefined>
famous,super,F03,S12,A,137,753,TRUE,s033,<undefined>,-0.12782,-0.35574,-0.3055,<undefined>,-0.25444,-0.3223,0.078585,<undefined>,-0.3218,-0.32675,-0.46783,<undefined>,0.20588,-0.447,0.25,<undefined>,0.25,0.1875,0,<undefined>,-0.34819,-0.14017,-0.22434,<undefined>,-0.13388,-0.33211,-0.31822,<undefined>,-0.13288,-0.34853,-0.31694,<undefined>,<undefined>,<undefined>,<undefined>,<undefined>,0.022727,-0.033333,-0.20149,<undefined>,-0.086367,-0.072303,-0.16031,<undefined>,-0.12408,-0.31694,-0.108,<undefined>,-0.15,0.15196,-0.23739,<undefined>,-0.44102,-0.32675,-0.38925,<undefined>,-0.19437,0,0.26923
famous,super,F03,S12,B,56,928,TRUE,s034,0.45188,<undefined>,-0.051003,-0.15805,-0.23684,<undefined>,0,0.31579,-0.10526,<undefined>,-0.10526,-0.13158,-0.052632,<undefined>,-0.20476,0.28947,0.21504,<undefined>,0.55263,0.22917,0.12332,<undefined>,0.10978,0.14512,0.039861,<undefined>,0.026316,-0.039086,0.47368,<undefined>,0.030025,-0.080346,<undefined>,<undefined>,<undefined>,<undefined>,-0.014706,<undefined>,0.016667,-0.19403,-0.15789,<undefined>,0.0090302,0.13281,0.026316,<undefined>,-0.13158,0.013545,0.061662,<undefined>,0.15909,0.13947,-0.18421,<undefined>,-0.052632,-0.021801,0,<undefined>,-0.048202,0.17308
famous,super,F03,S12,C,151,679,TRUE,s035,0.029412,-0.35355,<undefined>,-0.43224,-0.43872,-0.32496,<undefined>,-0.070324,-0.37802,-0.44954,<undefined>,-0.43872,-0.21644,-0.088235,<undefined>,-0.0625,0.083333,-0.0625,<undefined>,0.125,0.038462,-0.42279,<undefined>,-0.32771,-0.44281,-0.34996,<undefined>,-0.21664,-0.088235,-0.39066,<undefined>,-0.40311,<undefined>,<undefined>,<undefined>,<undefined>,-0.088235,-0.15909,<undefined>,-0.27612,-0.47907,-0.18978,<undefined>,-0.15396,-0.42851,-0.24933,<undefined>,-0.13568,0.43333,-0.27071,<undefined>,-0.38025,-0.25,-0.44281,<undefined>,-0.44281,-0.071429,-0.39066,<undefined>,0.076923
famous,super,F03,S12,D,139,676,TRUE,s036,0.35294,-0.057843,-0.078898,<undefined>,-0.10714,0.40441,0.23077,<undefined>,0.04506,0.020185,0.04506,<undefined>,0.090121,0.29412,-0.13154,<undefined>,0.19231,0.19286,0.32143,<undefined>,0.18024,0.15385,0.34615,<undefined>,0.089543,0.047969,0.17364,<undefined>,0.35294,-0.11552,-0.057843,<undefined>,<undefined>,<undefined>,<undefined>,<undefined>,-0.014706,-0.17045,-0.016667,<undefined>,0,-0.078898,0.089543,<undefined>,0.17364,0.19891,0.038462,<undefined>,0.38382,0.075,-0.022727,<undefined>,-0.038462,0.011438,0.090121,<undefined>,-0.12652,-0.11552,0.076798,<undefined>
famous,super,F03,S13,A,13,1688,TRUE,s037,<undefined>,-0.014273,-0.068483,0.03071,<undefined>,0.029412,-0.10294,-0.097895,<undefined>,-0.0096596,-0.0563,-0.14706,<undefined>,-0.13235,-0.20588,-0.11765,<undefined>,-0.083189,-0.14201,0.11765,<undefined>,-0.10294,-0.058824,-0.044118,<undefined>,-0.053777,-0.058824,-0.043685,<undefined>,-0.018886,-0.0020902,-0.17856,<undefined>,-0.014706,-0.088235,-0.014706,<undefined>,<undefined>,<undefined>,<undefined>,<undefined>,0.13235,0.10294,0.14245,<undefined>,-0.16176,-0.058824,0.029412,<undefined>,-0.20084,-0.0071365,-0.11008,<undefined>,-0.13235,-0.097895,-0.073529,<undefined>,-0.018886,0.22311,0.31135
famous,super,F03,S13,B,57,2154,TRUE,s038,-0.098373,<undefined>,-0.25908,-0.19413,-0.31038,<undefined>,-0.30682,-0.18928,-0.21591,<undefined>,-0.21591,-0.3159,-0.24805,<undefined>,-0.20226,-0.15909,-0.15909,<undefined>,-0.20455,0.043839,-0.056818,<undefined>,-0.29545,-0.25746,-0.28019,<undefined>,-0.29545,-0.20616,-0.052919,<undefined>,-0.27044,-0.10907,0.022727,<undefined>,-0.15909,-0.17045,<undefined>,<undefined>,<undefined>,<undefined>,-0.28409,<undefined>,-0.17045,-0.058433,-0.29545,<undefined>,-0.22727,-0.21396,-0.056818,<undefined>,-0.028242,-0.28961,-0.20455,<undefined>,-0.24805,-0.24415,0.125,<undefined>,0.13636,0.12695
famous,super,F03,S13,C,80,1537,TRUE,s039,0.055719,-0.25188,<undefined>,-0.19212,-0.27712,-0.16667,<undefined>,-0.010948,-0.25,-0.17998,<undefined>,-0.26667,-0.23047,-0.05,<undefined>,-0.033333,-0.080474,-0.080474,<undefined>,0.1,-0.05,-0.21667,<undefined>,-0.13047,-0.1857,-0.24714,<undefined>,-0.2357,-0.05,-0.23521,<undefined>,-0.098192,-0.033333,0.016667,<undefined>,-0.016667,<undefined>,<undefined>,<undefined>,<undefined>,-0.28333,0.047631,<undefined>,0.094772,-0.19428,-0.15,<undefined>,-0.15523,0.10286,-0.21381,<undefined>,-0.29142,-0.2219,-0.21095,<undefined>,-0.11904,0.094772,-0.24093,<undefined>,0.35286
famous,super,F03,S13,D,44,3479,TRUE,s040,-0.1194,-0.12687,-0.11066,<undefined>,-0.29467,-0.27612,-0.31343,<undefined>,-0.20896,-0.1194,-0.20896,<undefined>,-0.20896,-0.1791,-0.20149,<undefined>,-0.29104,-0.17164,-0.24627,<undefined>,-0.20896,-0.29851,-0.3209,<undefined>,-0.16418,-0.23134,-0.23134,<undefined>,-0.1194,-0.086991,-0.073346,<undefined>,-0.20149,-0.19403,-0.27612,<undefined>,<undefined>,<undefined>,<undefined>,<undefined>,-0.26866,-0.072066,-0.16418,<undefined>,-0.23134,-0.28358,-0.23134,<undefined>,-0.20896,-0.3209,-0.16908,<undefined>,-0.23134,-0.22388,-0.20896,<undefined>,-0.029851,-0.10448,-0.11194,<undefined>
famous,super,F03,S14,A,145,634,TRUE,s041,<undefined>,0.275,0.2381,0,<undefined>,0.42308,0.46154,0.27583,<undefined>,0.41176,0.69231,0.51838,<undefined>,-0.018453,0.14583,-0.024968,<undefined>,-0.11336,-0.065301,-0.14583,<undefined>,0.53846,0.19231,0.47059,<undefined>,0.54797,0.65385,0.36111,<undefined>,0.17391,0.275,-0.015625,<undefined>,-0.15789,-0.47907,0,<undefined>,-0.28409,-0.28333,-0.26866,<undefined>,<undefined>,<undefined>,<undefined>,<undefined>,0.44287,0.65385,0.53571,<undefined>,-0.14571,-0.11687,0.1313,<undefined>,0.66667,0.69231,0.53333,<undefined>,0.17391,-0.14583,-0.16648
famous,super,F03,S14,B,133,1159,TRUE,s042,0.0803,<undefined>,0.28233,0.029966,0.071429,<undefined>,0.095238,0.091854,0.19865,<undefined>,0.19865,0.21429,0.26599,<undefined>,0.086908,-0.038748,-0.37208,<undefined>,-0.094537,0.059539,-0.31699,<undefined>,0.071429,0.14286,0.3694,<undefined>,0.35714,0.29797,-0.12173,<undefined>,0.30614,0.050016,-0.086367,<undefined>,-0.18978,-0.078898,0.13235,<undefined>,0.047631,-0.072066,<undefined>,<undefined>,<undefined>,<undefined>,0.35714,<undefined>,0.15511,0.19456,-0.042833,<undefined>,-0.2344,0,0.087769,<undefined>,0.26599,0.31361,-0.18907,<undefined>,-0.18331,0.222
famous,super,F03,S14,C,58,717,TRUE,s043,0.22102,0.34216,<undefined>,0.043327,0.3,0.5,<undefined>,0.25049,0.43905,0.49077,<undefined>,0.43333,0.53333,-0.048731,<undefined>,-0.046415,-0.35997,-0.42586,<undefined>,0.16013,-0.4,0.4,<undefined>,0.29412,0.62288,0.5,<undefined>,0.43573,-0.14619,0.23231,<undefined>,0.026348,-0.072303,0.0090302,<undefined>,0.089543,0.10294,-0.17045,<undefined>,-0.16418,<undefined>,<undefined>,<undefined>,<undefined>,0.60572,0.18382,<undefined>,0.43333,0.14003,-0.125,<undefined>,0.095238,0.28382,0.46667,<undefined>,0.54477,-0.22514,0.23231,<undefined>,0.14781
famous,super,F03,S14,D,51,1310,TRUE,s044,0.28731,0.35185,0.40741,<undefined>,-0.055556,0.055556,-0.037037,<undefined>,0.065087,0.44444,0.065087,<undefined>,0.11747,0.19154,0.42593,<undefined>,-0.086238,-0.051833,0.12963,<undefined>,-0.14443,0,-0.055556,<undefined>,0.33333,0.16667,0.16667,<undefined>,0.13017,0.40741,0.53704,<undefined>,-0.16031,0.13281,-0.15396,<undefined>,0.14245,-0.058433,0.094772,<undefined>,<undefined>,<undefined>,<undefined>,<undefined>,0.16667,0.037037,0.0095318,<undefined>,-0.092047,-0.055556,0.11166,<undefined>,-0.042846,0.22222,0.11747,<undefined>,-0.18409,0.44444,-0.10421,<undefined>
famous,super,F03,S15,A,111,883,TRUE,s045,<undefined>,0.4,0.35714,0.080645,<undefined>,0.75,0.54167,0.44947,<undefined>,0.55882,0.66704,0.64286,<undefined>,0.073962,0.25,0.083947,<undefined>,-0.2955,0.095939,0,<undefined>,0.625,0.5,0.44118,<undefined>,0.71429,1,0.5,<undefined>,0.28261,0.4,0.0625,<undefined>,0.026316,-0.42851,0.17364,<undefined>,-0.29545,-0.19428,-0.23134,<undefined>,0.35714,0.60572,0.16667,<undefined>,<undefined>,<undefined>,<undefined>,<undefined>,-0.1,-0.045455,0.21429,<undefined>,0.63333,0.77583,0.7,<undefined>,0.28261,-0.16667,-0.079656
