subj,ability,face,fame,angle,trial,rt,acc,sq,s001,s002,s003,s004,s005,s006,s007,s008,s009,s010,s011,s012,s013,s014,s015,s016,s017,s018,s019,s020,s021,s022,s023,s024,s025,s026,s027,s028,s029,s030,s031,s032,s033,s034,s035,s036,s037,s038,s039,s040,s041,s042,s043,s044,s045
C01,control,F01,famous,A,137,862,TRUE,s001,<undefined>,0.59287,-0.012552,0.13947,0.15049,0.11716,0.13793,-0.125,-0.22561,0.083333,0.25049,-0.61519,0.22581,0.20132,-0.5556,0.039052,0.083333,-0.16667,-0.15945,0.39108,0.083333,-0.036901,0.20312,0,-0.096154,0.27145,-0.072303,-0.091421,-0.41519,0.13905,0.47059,0.41716,0.058824,0.2,-0.36667,0.19444,-0.40625,0.2271,<undefined>,-0.11618,-0.028553,0.10526,-0.10215,<undefined>,<undefined>
C04,control,F01,famous,A,129,874,TRUE,s002,0.59287,<undefined>,0.19697,-0.038748,0.042076,0.014298,0.12661,-0.11213,-0.17073,0.13017,0.033361,-0.43328,0.37097,0.084448,-0.54205,-0.1619,0.16667,-0.16667,-0.2606,0.53254,0.13017,-0.085307,0.26831,0.027778,-0.11538,0.055025,-0.30474,-0.17712,-0.49442,-0.078567,0.25,0.42143,-0.1619,0.060321,-0.5,0,-0.55556,0.28474,<undefined>,-0.18015,-0.094975,0.026316,-0.097299,<undefined>,<undefined>
C05,control,F01,famous,A,135,1919,TRUE,s003,-0.012552,0.19697,<undefined>,-0.022058,0.045455,0.060606,-0.10042,0.22727,0.051919,0.075758,-0.31774,-0.40085,0.30823,-0.20863,-0.30214,-0.11081,0.37879,-0.40909,-0.56021,0.10606,0.28788,-0.26586,0.055853,-0.21212,-0.31298,-0.30258,-0.32034,-0.3727,-0.23982,-0.077911,-0.21212,-0.015152,-0.42424,-0.31558,-0.62121,-0.34848,-0.65152,0.22772,<undefined>,-0.08831,-0.39349,-0.21212,-0.067101,<undefined>,<undefined>
C06,control,F01,famous,A,47,1143,TRUE,s004,0.13947,-0.038748,-0.022058,<undefined>,0.059874,0.10341,0.017749,0.008871,-0.17474,-0.027194,0.095238,-0.25712,-0.072343,0.30002,-0.24148,0.26599,0.080964,-0.21429,-0.10347,-0.058472,0.084385,-0.020629,-0.041513,-0.38434,-0.25,0.22246,0.12722,0.18096,0.19456,0.40476,0.027895,-0.14216,0,0.055789,-0.2619,-0.02381,-0.30952,0.095081,<undefined>,-0.091153,-0.02381,-0.011554,-0.083287,<undefined>,<undefined>
C07,control,F01,famous,A,148,564,TRUE,s005,0.15049,0.042076,0.045455,0.059874,<undefined>,0.80769,-0.16354,0.05,-0.28049,0.27778,-0.18284,-0.30812,-0.048387,-0.12077,-0.20975,0.16045,-0.033333,-0.49282,-0.35095,0.10983,0.27778,-0.11111,-0.16919,-0.14706,-0.31702,-0.082843,-0.30622,-0.34142,-0.046918,0.14286,-0.029412,0.2643,-0.23025,-0.1714,-0.71429,-0.15713,-0.6875,-0.017241,<undefined>,0.35714,-0.39497,0.16241,-0.23585,<undefined>,<undefined>
C08,control,F01,famous,A,148,628,TRUE,s006,0.11716,0.014298,0.060606,0.10341,0.80769,<undefined>,-0.18078,-0.025,-0.27439,0.25,-0.2,-0.24282,-0.064516,-0.079211,-0.16164,0.23077,-0.05,-0.54587,-0.32625,0.078585,0.25,-0.069444,-0.18482,-0.23529,-0.31373,-0.037132,-0.27497,-0.32475,-0.023459,0.10714,-0.058824,0.20551,-0.23529,-0.20474,-0.75,-0.12936,-0.71875,-0.034483,<undefined>,0.36327,-0.37855,0.10526,-0.24528,<undefined>,<undefined>
C10,control,F01,famous,A,68,1559,TRUE,s007,0.13793,0.12661,-0.10042,0.017749,-0.16354,-0.18078,<undefined>,-0.091108,-0.028395,-0.088658,0.17241,-0.53938,0.29127,0.43103,-0.58519,-0.16058,0.061438,-0.12069,0.081081,0.18129,-0.068458,-0.013889,0.32812,0.068966,0.086207,0.19557,0.12069,0.18333,-0.45614,-0.16599,-0.048766,0.12069,-0.028566,-0.083249,-0.12069,-0.025608,-0.32759,0.34483,<undefined>,-0.28127,0.15517,-0.10345,0.078709,<undefined>,<undefined>
C11,control,F01,famous,A,26,966,TRUE,s008,-0.125,-0.11213,0.22727,0.008871,0.05,-0.025,-0.091108,<undefined>,-0.23676,0.45,-0.24926,-0.35711,0.00047479,-0.3467,-0.22353,0.12145,0.16667,-0.35,-0.47218,-0.012132,0.15,-0.28173,-0.17142,-0.18713,-0.41648,-0.45355,-0.28284,-0.40139,-0.091421,0.046447,-0.275,0.058579,-0.47855,-0.33713,-0.7,-0.43284,-0.75,-0.066007,<undefined>,-0.091421,-0.34497,-0.275,-0.23719,<undefined>,<undefined>
C12,control,F01,famous,A,29,4214,TRUE,s009,-0.22561,-0.17073,0.051919,-0.17474,-0.28049,-0.27439,-0.028395,-0.23676,<undefined>,-0.23972,-0.2622,-0.30488,0.03258,-0.097561,-0.26515,-0.31098,-0.060976,-0.36585,-0.16969,-0.20732,-0.21951,-0.10976,-0.085366,-0.31098,-0.2561,-0.19512,-0.28049,-0.13711,-0.28049,-0.2561,-0.2622,-0.28049,-0.29878,-0.33537,-0.37805,-0.29268,-0.45122,0.018293,<undefined>,-0.33432,-0.2439,-0.29878,0.042683,<undefined>,<undefined>
C14,control,F01,famous,A,6,869,TRUE,s010,0.083333,0.13017,0.075758,-0.027194,0.27778,0.25,-0.088658,0.45,-0.23972,<undefined>,-0.28091,-0.43328,0.18849,-0.17268,-0.26986,-0.031726,0.066667,-0.45792,-0.41349,0.15319,0.55556,-0.19642,-0.11964,-0.083333,-0.31702,-0.22782,-0.38331,-0.3933,-0.13807,0.20874,-0.12936,0.23175,-0.47617,-0.23094,-0.79126,-0.31427,-0.84681,-0.051724,<undefined>,0.088099,-0.46569,-0.20601,-0.14285,<undefined>,<undefined>
C15,control,F01,famous,A,56,714,TRUE,s011,0.25049,0.033361,-0.31774,0.095238,-0.18284,-0.2,0.17241,-0.24926,-0.2622,-0.28091,<undefined>,-0.92761,-0.099067,0.32208,-0.80224,0.078105,-0.23856,0.43333,-0.027027,0.011643,-0.28091,-0.125,-0.085708,-0.17647,0.0032995,0.225,0.34375,0.10286,-0.5714,0.0057191,-0.024366,-0.065685,0.10337,0.2781,0.083824,0.014298,-0.21875,-0.034483,<undefined>,0.044772,0.225,-0.17067,-0.15094,<undefined>,<undefined>
C18,control,F01,famous,A,53,888,TRUE,s012,-0.61519,-0.43328,-0.40085,-0.25712,-0.30812,-0.24282,-0.53938,-0.35711,-0.30488,-0.43328,-0.92761,<undefined>,-0.46126,-0.71168,0.60526,-0.5112,-0.45997,<undefined>,-0.65753,-0.46155,-0.43328,-0.49047,-0.42364,-0.67056,-0.67911,-0.73284,-0.9375,-0.53333,0.066352,-0.62342,-0.67056,-0.51015,-0.80839,-0.75523,<undefined>,-0.75871,<undefined>,-0.32412,<undefined>,-0.61835,<undefined>,-0.50374,-0.47734,<undefined>,<undefined>
C20,control,F01,famous,A,107,1506,TRUE,s013,0.22581,0.37097,0.30823,-0.072343,-0.048387,-0.064516,0.29127,0.00047479,0.03258,0.18849,-0.099067,-0.46126,<undefined>,0.017079,-0.35618,-0.04562,0.20968,-0.27419,-0.35983,0.13733,0.18849,-0.059913,0.27099,0,-0.080645,-0.082938,-0.19078,-0.15757,-0.28985,-0.19078,0,0.080645,-0.22581,-0.11014,-0.43548,-0.14516,-0.46774,0.39817,<undefined>,-0.15852,-0.17971,-0.12903,-0.0078154,<undefined>,<undefined>
C21,control,F01,famous,A,49,1209,TRUE,s014,0.20132,0.084448,-0.20863,0.30002,-0.12077,-0.079211,0.43103,-0.3467,-0.097561,-0.17268,0.32208,-0.71168,0.017079,<undefined>,-0.77206,-0.052584,-0.038071,0,0.16448,0.012367,-0.17268,0.19444,0.21875,-0.24543,0.11538,0.63636,0.31818,0.4,-0.44218,0.068851,0.19352,-0.067513,0.25,0.049354,-0.045455,0.27273,-0.31818,0.3335,<undefined>,-0.21168,0.36364,0.14026,0.10377,<undefined>,<undefined>
C22,control,F01,famous,A,27,913,TRUE,s015,-0.5556,-0.54205,-0.30214,-0.24148,-0.20975,-0.16164,-0.58519,-0.22353,-0.26515,-0.26986,-0.80224,0.60526,-0.35618,-0.77206,<undefined>,-0.35939,-0.40997,-0.80676,-0.69343,-0.45859,-0.26986,-0.50436,-0.48346,-0.73155,-0.7302,-0.79926,-0.81579,-0.57761,0.066177,-0.44208,-0.66989,-0.44582,-0.79321,-0.66615,-0.80676,-0.7887,-0.85939,-0.34973,<undefined>,-0.43834,-0.91642,-0.60449,-0.44904,<undefined>,<undefined>
C25,control,F01,famous,A,142,636,TRUE,s016,0.039052,-0.1619,-0.11081,0.26599,0.16045,0.23077,-0.16058,0.12145,-0.31098,-0.031726,0.078105,-0.5112,-0.04562,-0.052584,-0.35939,<undefined>,-0.1719,-0.32143,-0.23397,-0.20803,-0.031726,-0.10873,-0.16651,-0.4504,-0.32692,-0.0078427,0.15625,-0.1719,0.0061276,0.077556,-0.11765,-0.21097,-0.11765,-0.16095,-0.39286,-0.13889,-0.40625,-0.13793,<undefined>,0.1194,-0.066421,-0.10526,-0.21536,<undefined>,<undefined>
C28,control,F01,famous,A,77,1727,TRUE,s017,0.083333,0.16667,0.37879,0.080964,-0.033333,-0.05,0.061438,0.16667,-0.060976,0.066667,-0.23856,-0.45997,0.20968,-0.038071,-0.40997,-0.1719,<undefined>,-0.20237,-0.19071,0.11953,0.15286,-0.06427,0.28661,0.18333,0.1,0.12288,-0.22998,-0.012826,-0.082843,0.13333,0.23619,0.0057191,-0.010948,-0.083333,-0.2,0.044772,-0.23333,0.28905,<undefined>,-0.14714,-0.029983,0.11667,-0.034221,<undefined>,<undefined>
C29,control,F01,famous,A,35,919,TRUE,s018,-0.16667,-0.16667,-0.40909,-0.21429,-0.49282,-0.54587,-0.12069,-0.35,-0.36585,-0.45792,0.43333,-1,-0.27419,0,-0.80676,-0.32143,-0.20237,<undefined>,-0.094595,-0.22855,-0.45792,-0.24047,-0.03125,0.098328,0.029129,0.25,-0.025888,0,-0.40406,-0.35714,0.098328,-0.18978,0.26053,0.3781,0.32248,-0.13807,0.036612,-0.25862,<undefined>,-0.071429,0.25,-0.030056,-0.21698,<undefined>,<undefined>
C31,control,F01,famous,A,117,2052,TRUE,s019,-0.15945,-0.2606,-0.56021,-0.10347,-0.35095,-0.32625,0.081081,-0.47218,-0.16969,-0.41349,-0.027027,-0.65753,-0.35983,0.16448,-0.69343,-0.23397,-0.19071,-0.094595,<undefined>,-0.27179,-0.41349,0.14673,0.092674,-0.2135,0.054452,0.23437,-0.051736,0.2502,-0.4162,-0.19999,-0.033585,-0.31929,0.15097,-0.10811,0.067568,0.029346,-0.040541,-0.14633,<undefined>,-0.32856,0.1197,0.047496,0.10539,<undefined>,<undefined>
C32,control,F01,famous,A,45,782,TRUE,s020,0.39108,0.53254,0.10606,-0.058472,0.10983,0.078585,0.18129,-0.012132,-0.20732,0.15319,0.011643,-0.46155,0.13733,0.012367,-0.45859,-0.20803,0.11953,-0.22855,-0.27179,<undefined>,0.15319,-0.12936,0.125,0.088235,-0.10879,0.034315,-0.36872,-0.22998,-0.53033,-0.11428,0.0050463,0.625,-0.19579,0.067862,-0.5625,-0.13412,-0.625,0.086207,<undefined>,-0.17678,-0.32782,0.026316,-0.092721,<undefined>,<undefined>
C33,control,F01,famous,A,117,1026,TRUE,s021,0.083333,0.13017,0.28788,0.084385,0.27778,0.25,-0.068458,0.15,-0.21951,0.55556,-0.28091,-0.43328,0.18849,-0.17268,-0.26986,-0.031726,0.15286,-0.45792,-0.41349,0.15319,<undefined>,-0.19642,-0.10355,-0.083333,-0.34615,-0.22782,-0.28567,-0.36569,-0.13807,0.20874,-0.12936,0.23175,-0.47617,-0.23094,-0.79126,-0.34681,-0.84681,-0.068458,<undefined>,0.088099,-0.58284,-0.20601,-0.12398,<undefined>,<undefined>
C34,control,F01,famous,A,60,1753,TRUE,s022,-0.036901,-0.085307,-0.26586,-0.020629,-0.11111,-0.069444,-0.013889,-0.28173,-0.10976,-0.19642,-0.125,-0.49047,-0.059913,0.19444,-0.50436,-0.10873,-0.06427,-0.24047,0.14673,-0.12936,-0.19642,<undefined>,0.1139,-0.17776,0.21072,0.092865,-0.055556,0.088099,-0.3238,-0.094839,-0.009123,-0.17817,0.069444,-0.17579,0,0.19444,-0.11111,-0.0043571,<undefined>,-0.22896,-0.11111,0.23611,0.31132,<undefined>,<undefined>
C37,control,F01,famous,A,64,1556,TRUE,s023,0.20312,0.26831,0.055853,-0.041513,-0.16919,-0.18482,0.32812,-0.17142,-0.085366,-0.11964,-0.085708,-0.42364,0.27099,0.21875,-0.48346,-0.16651,0.28661,-0.03125,0.092674,0.125,-0.10355,0.1139,<undefined>,0.046875,0.13572,0.34375,-0.11428,0.17456,-0.29105,-0.16383,0.23438,0,0.25268,-0.015625,0.09375,0.15625,-0.09375,0.45312,<undefined>,-0.27589,0.049556,0.26562,0.083565,<undefined>,<undefined>
C39,control,F01,famous,A,75,880,TRUE,s024,0,0.027778,-0.21212,-0.38434,-0.14706,-0.23529,0.068966,-0.18713,-0.31098,-0.083333,-0.17647,-0.67056,0,-0.24543,-0.73155,-0.4504,0.18333,0.098328,-0.2135,0.088235,-0.083333,-0.17776,0.046875,<undefined>,0.096154,-0.175,-0.35208,-0.052369,-0.55882,-0.42099,0.17647,0.14706,-0.058824,0.058824,0.0050463,0.15795,-0.088235,0,<undefined>,-0.1126,0.025,-0.10526,-0.09434,<undefined>,<undefined>
C40,control,F01,famous,A,84,1535,TRUE,s025,-0.096154,-0.11538,-0.31298,-0.25,-0.31702,-0.31373,0.086207,-0.41648,-0.2561,-0.31702,0.0032995,-0.67911,-0.080645,0.11538,-0.7302,-0.32692,0.1,0.029129,0.054452,-0.10879,-0.34615,0.21072,0.13572,0.096154,<undefined>,0.15385,-0.17251,0.033333,-0.40328,-0.23077,0.25,-0.11538,0.36538,-0.028563,0.2533,0.33022,0.038462,0.029074,<undefined>,-0.18571,0.31429,0.21154,0.039354,<undefined>,<undefined>
C41,control,F01,famous,A,158,1177,TRUE,s026,0.27145,0.055025,-0.30258,0.22246,-0.082843,-0.037132,0.19557,-0.45355,-0.19512,-0.22782,0.225,-0.73284,-0.082938,0.63636,-0.79926,-0.0078427,0.12288,0.25,0.23437,0.034315,-0.22782,0.092865,0.34375,-0.175,0.15385,<undefined>,0.20858,0.36667,-0.2864,0.12574,0.45429,-0.024264,0.575,0.25429,0.25,0.25858,-0.05,0.15517,<undefined>,-0.18284,0.52929,0.45429,0.009434,<undefined>,<undefined>
C42,control,F01,famous,A,111,1982,TRUE,s027,-0.072303,-0.30474,-0.32034,0.12722,-0.30622,-0.27497,0.12069,-0.28284,-0.28049,-0.38331,0.34375,-0.9375,-0.19078,0.31818,-0.81579,0.15625,-0.22998,-0.025888,-0.051736,-0.36872,-0.28567,-0.055556,-0.11428,-0.35208,-0.17251,0.20858,<undefined>,0.1,-0.4375,-0.0044417,-0.096596,-0.33211,0.069782,-0.15625,0.021447,-0.095996,-0.25,-0.025608,<undefined>,-0.14017,0.20858,-0.20072,-0.16038,<undefined>,<undefined>
C43,control,F01,famous,A,154,1887,TRUE,s028,-0.091421,-0.17712,-0.3727,0.18096,-0.34142,-0.32475,0.18333,-0.40139,-0.13711,-0.3933,0.10286,-0.53333,-0.15757,0.4,-0.57761,-0.1719,-0.012826,0,0.2502,-0.22998,-0.36569,0.088099,0.17456,-0.052369,0.033333,0.36667,0.1,<undefined>,-0.2357,-0.18284,0.055719,-0.28856,0.11667,0.15572,0,0.066667,-0.2,0.15,<undefined>,-0.088562,0.33333,0.016667,0.039354,<undefined>,<undefined>
C46,control,F01,famous,A,94,696,TRUE,s029,-0.41519,-0.49442,-0.23982,0.19456,-0.046918,-0.023459,-0.45614,-0.091421,-0.28049,-0.13807,-0.5714,0.066352,-0.28985,-0.44218,0.066177,0.0061276,-0.082843,-0.40406,-0.4162,-0.53033,-0.13807,-0.3238,-0.29105,-0.55882,-0.40328,-0.2864,-0.4375,-0.2357,<undefined>,0.095939,-0.2487,-0.53466,-0.28316,-0.23807,-0.4459,-0.42538,-0.45267,-0.36697,<undefined>,-0.17244,-0.40355,-0.15712,-0.29056,<undefined>,<undefined>
C48,control,F01,famous,A,154,973,TRUE,s030,0.13905,-0.078567,-0.077911,0.40476,0.14286,0.10714,-0.16599,0.046447,-0.2561,0.20874,0.0057191,-0.62342,-0.19078,0.068851,-0.44208,0.077556,0.13333,-0.35714,-0.19999,-0.11428,0.20874,-0.094839,-0.16383,-0.42099,-0.23077,0.12574,-0.0044417,-0.18284,0.095939,<undefined>,-0.029412,-0.08876,0.029412,-0.1,-0.42857,-0.055556,-0.4375,-0.088658,<undefined>,-0.071429,-0.17426,-0.026316,-0.15714,<undefined>,<undefined>
C49,control,F01,famous,A,35,828,TRUE,s031,0.47059,0.25,-0.21212,0.027895,-0.029412,-0.058824,-0.048766,-0.275,-0.2622,-0.12936,-0.024366,-0.67056,0,0.19352,-0.66989,-0.11765,0.23619,0.098328,-0.033585,0.0050463,-0.12936,-0.009123,0.23438,0.17647,0.25,0.45429,-0.096596,0.055719,-0.2487,-0.029412,<undefined>,0.073962,0.56387,0.23529,0.20588,0.36111,0.088235,0.17241,<undefined>,-0.32353,0.22145,0.47368,-0.10215,<undefined>,<undefined>
C50,control,F01,famous,A,122,572,TRUE,s032,0.41716,0.42143,-0.015152,-0.14216,0.2643,0.20551,0.12069,0.058579,-0.28049,0.23175,-0.065685,-0.51015,0.080645,-0.067513,-0.44582,-0.21097,0.0057191,-0.18978,-0.31929,0.625,0.23175,-0.17817,0,0.14706,-0.11538,-0.024264,-0.33211,-0.28856,-0.53466,-0.08876,0.073962,<undefined>,-0.16133,0.11144,-0.60102,-0.10158,-0.58839,0.023158,<undefined>,-0.10102,-0.3364,0.078947,-0.16038,<undefined>,<undefined>
C51,control,F01,famous,A,125,1049,TRUE,s033,0.058824,-0.1619,-0.42424,0,-0.23025,-0.23529,-0.028566,-0.47855,-0.29878,-0.47617,0.10337,-0.80839,-0.22581,0.25,-0.79321,-0.11765,-0.010948,0.26053,0.15097,-0.19579,-0.47617,0.069444,0.25268,-0.058824,0.36538,0.575,0.069782,0.11667,-0.28316,0.029412,0.56387,-0.16133,<undefined>,0.18656,0.61765,0.3381,0.26471,-0.068966,<undefined>,-0.38235,0.27145,0.63158,-0.037736,<undefined>,<undefined>
C54,control,F01,famous,A,126,988,TRUE,s034,0.2,0.060321,-0.31558,0.055789,-0.1714,-0.20474,-0.083249,-0.33713,-0.33537,-0.23094,0.2781,-0.75523,-0.11014,0.049354,-0.66615,-0.16095,-0.083333,0.3781,-0.10811,0.067862,-0.23094,-0.17579,-0.015625,0.058824,-0.028563,0.25429,-0.15625,0.15572,-0.23807,-0.1,0.23529,0.11144,0.18656,<undefined>,-0.026633,0.01035,-0.21875,-0.034483,<undefined>,0.1,0.083579,0.10152,-0.21536,<undefined>,<undefined>
C55,control,F01,famous,A,15,845,TRUE,s035,-0.36667,-0.5,-0.62121,-0.2619,-0.71429,-0.75,-0.12069,-0.7,-0.37805,-0.79126,0.083824,-1,-0.43548,-0.045455,-0.80676,-0.39286,-0.2,0.32248,0.067568,-0.5625,-0.79126,0,0.09375,0.0050463,0.2533,0.25,0.021447,0,-0.4459,-0.42857,0.20588,-0.60102,0.61765,-0.026633,<undefined>,0.2643,0.5,-0.2931,<undefined>,-0.58876,0.2,0.28947,-0.10377,<undefined>,<undefined>
C56,control,F01,famous,A,48,896,TRUE,s036,0.19444,0,-0.34848,-0.02381,-0.15713,-0.12936,-0.025608,-0.43284,-0.29268,-0.31427,0.014298,-0.75871,-0.14516,0.27273,-0.7887,-0.13889,0.044772,-0.13807,0.029346,-0.13412,-0.34681,0.19444,0.15625,0.15795,0.33022,0.25858,-0.095996,0.066667,-0.42538,-0.055556,0.36111,-0.10158,0.3381,0.01035,0.2643,<undefined>,-0.069036,0.017241,<undefined>,-0.3238,0.11716,0.34211,-0.028302,<undefined>,<undefined>
C57,control,F01,famous,A,151,752,TRUE,s037,-0.40625,-0.55556,-0.65152,-0.30952,-0.6875,-0.71875,-0.32759,-0.75,-0.45122,-0.84681,-0.21875,-0.9375,-0.46774,-0.31818,-0.85939,-0.40625,-0.23333,0.036612,-0.040541,-0.625,-0.84681,-0.11111,-0.09375,-0.088235,0.038462,-0.05,-0.25,-0.2,-0.45267,-0.4375,0.088235,-0.58839,0.26471,-0.21875,0.5,-0.069036,<undefined>,-0.36207,<undefined>,-0.57767,-0.1,0.078947,-0.17925,<undefined>,<undefined>
C58,control,F01,famous,A,81,1615,TRUE,s038,0.2271,0.28474,0.22772,0.095081,-0.017241,-0.034483,0.34483,-0.066007,0.018293,-0.051724,-0.034483,-0.32412,0.39817,0.3335,-0.34973,-0.13793,0.28905,-0.25862,-0.14633,0.086207,-0.068458,-0.0043571,0.45312,0,0.029074,0.15517,-0.025608,0.15,-0.36697,-0.088658,0.17241,0.023158,-0.068966,-0.034483,-0.2931,0.017241,-0.36207,<undefined>,<undefined>,-0.22414,0.051724,-0.068966,-0.026683,<undefined>,<undefined>
C60,control,F01,famous,A,5,1460,FALSE,s039,<undefined>,<undefined>,<undefined>,<undefined>,<undefined>,<undefined>,<undefined>,<undefined>,<undefined>,<undefined>,<undefined>,<undefined>,<undefined>,<undefined>,<undefined>,<undefined>,<undefined>,<undefined>,<undefined>,<undefined>,<undefined>,<undefined>,<undefined>,<undefined>,<undefined>,<undefined>,<undefined>,<undefined>,<undefined>,<undefined>,<undefined>,<undefined>,<undefined>,<undefined>,<undefined>,<undefined>,<undefined>,<undefined>,<undefined>,<undefined>,<undefined>,<undefined>,<undefined>,<undefined>,<undefined>
C61,control,F01,famous,A,17,693,TRUE,s040,-0.11618,-0.18015,-0.08831,-0.091153,0.35714,0.36327,-0.28127,-0.091421,-0.33432,0.088099,0.044772,-0.61835,-0.15852,-0.21168,-0.43834,0.1194,-0.14714,-0.071429,-0.32856,-0.17678,0.088099,-0.22896,-0.27589,-0.1126,-0.18571,-0.18284,-0.14017,-0.088562,-0.17244,-0.071429,-0.32353,-0.10102,-0.38235,0.1,-0.58876,-0.3238,-0.57767,-0.22414,<undefined>,<undefined>,-0.27071,-0.13158,-0.29245,<undefined>,<undefined>
C63,control,F01,famous,A,16,1142,TRUE,s041,-0.028553,-0.094975,-0.39349,-0.02381,-0.39497,-0.37855,0.15517,-0.34497,-0.2439,-0.46569,0.225,-0.85,-0.17971,0.36364,-0.91642,-0.066421,-0.029983,0.25,0.1197,-0.32782,-0.58284,-0.11111,0.049556,0.025,0.31429,0.52929,0.20858,0.33333,-0.40355,-0.17426,0.22145,-0.3364,0.27145,0.083579,0.2,0.11716,-0.1,0.051724,<undefined>,-0.27071,<undefined>,0.038604,-0.066038,<undefined>,<undefined>
C64,control,F01,famous,A,52,948,TRUE,s042,0.10526,0.026316,-0.21212,-0.011554,0.16241,0.10526,-0.10345,-0.275,-0.29878,-0.20601,-0.17067,-0.50374,-0.12903,0.14026,-0.60449,-0.10526,0.11667,-0.030056,0.047496,0.026316,-0.20601,0.23611,0.26562,-0.10526,0.21154,0.45429,-0.20072,0.016667,-0.15712,-0.026316,0.47368,0.078947,0.63158,0.10152,0.28947,0.34211,0.078947,-0.068966,<undefined>,-0.13158,0.038604,<undefined>,-0.056604,<undefined>,<undefined>
C66,control,F01,famous,A,92,2703,TRUE,s043,-0.10215,-0.097299,-0.067101,-0.083287,-0.23585,-0.24528,0.078709,-0.23719,0.042683,-0.14285,-0.15094,-0.47734,-0.0078154,0.10377,-0.44904,-0.21536,-0.034221,-0.21698,0.10539,-0.092721,-0.12398,0.31132,0.083565,-0.09434,0.039354,0.009434,-0.16038,0.039354,-0.29056,-0.15714,-0.10215,-0.16038,-0.037736,-0.21536,-0.10377,-0.028302,-0.17925,-0.026683,<undefined>,-0.29245,-0.066038,-0.056604,<undefined>,<undefined>,<undefined>
C69,control,F01,famous,A,26,1349,FALSE,s044,<undefined>,<undefined>,<undefined>,<undefined>,<undefined>,<undefined>,<undefined>,<undefined>,<undefined>,<undefined>,<undefined>,<undefined>,<undefined>,<undefined>,<undefined>,<undefined>,<undefined>,<undefined>,<undefined>,<undefined>,<undefined>,<undefined>,<undefined>,<undefined>,<undefined>,<undefined>,<undefined>,<undefined>,<undefined>,<undefined>,<undefined>,<undefined>,<undefined>,<undefined>,<undefined>,<undefined>,<undefined>,<undefined>,<undefined>,<undefined>,<undefined>,<undefined>,<undefined>,<undefined>,<undefined>
C71,control,F01,famous,A,2,1461,FALSE,s045,<undefined>,<undefined>,<undefined>,<undefined>,<undefined>,<undefined>,<undefined>,<undefined>,<undefined>,<undefined>,<undefined>,<undefined>,<undefined>,<undefined>,<undefined>,<undefined>,<undefined>,<undefined>,<undefined>,<undefined>,<undefined>,<undefined>,<undefined>,<undefined>,<undefined>,<undefined>,<undefined>,<undefined>,<undefined>,<undefined>,<undefined>,<undefined>,<undefined>,<undefined>,<undefined>,<undefined>,<undefined>,<undefined>,<undefined>,<undefined>,<undefined>,<undefined>,<undefined>,<undefined>,<undefined>
C01,control,F01,famous,B,61,1062,TRUE,s001,<undefined>,-0.060887,0.34662,0.062436,-0.24961,0.23684,0.20343,0.037037,-0.17518,0.057921,-0.074432,-0.33308,0.15867,0.23762,-0.25335,0.0045151,-0.15174,0.088752,-0.041053,0.08,0.27145,<undefined>,-0.0024506,-0.23684,-0.38095,-0.035189,0.37294,-0.33968,0.095238,0.47368,-0.10526,0.16,-0.24138,0.079722,-0.14286,-0.32856,-0.57895,-0.017973,-0.031279,-0.21878,-0.12629,-0.25926,<undefined>,-0.29364,0.20679
C04,control,F01,famous,B,82,777,TRUE,s002,-0.060887,<undefined>,-0.029412,-0.125,0.5625,0.058058,-0.2095,0.092593,0.16161,0.34375,0.14706,0.058058,-0.30622,-0.28418,-0.35355,-0.11428,-0.12222,-0.21247,-0.37081,0.02,0.1,<undefined>,-0.045808,-0.1875,-0.50338,-0.37701,-0.125,-0.43412,-0.02381,-0.030056,0.03125,-0.022843,-0.47388,-0.22319,-0.32108,-0.59997,-0.97059,-0.3878,0.2619,0.1875,-0.42933,-0.17565,<undefined>,-0.27975,-0.29695
C05,control,F01,famous,B,92,962,TRUE,s003,0.34662,-0.029412,<undefined>,0.30926,0.088235,-0.34198,-0.32376,0.2963,-0.088235,0.11765,-0.14201,-0.27898,-0.37053,-0.29773,-0.037773,0.0008658,-0.17778,-0.29239,-0.27676,0.4,0.40429,<undefined>,-0.28076,-0.14706,-0.51564,-0.3209,0.55882,-0.42206,-0.2102,0,-0.23529,-0.19598,-0.51969,-0.30248,-0.46802,-0.42105,-0.94118,-0.30528,-0.019724,0.14706,-0.19839,-0.40741,<undefined>,-0.27737,-0.23607
C06,control,F01,famous,B,70,862,TRUE,s004,0.062436,-0.125,0.30926,<undefined>,-0.5625,-0.17678,-0.030578,0.33651,-0.5,0.28125,-0.5,-0.19194,0.0062816,0.075207,-0.28033,0.19822,-0.1,0.11075,-0.02022,0.00058875,0.15858,<undefined>,-0.24087,-0.46339,-0.59524,-0.059173,0.27145,-0.34444,-0.35714,0.13158,-0.46875,-0.19941,-0.43103,0.10003,-0.28163,-0.13158,-0.61765,0.0031773,0.12722,-0.15089,0.20874,-0.46296,<undefined>,-0.094839,0.075207
C07,control,F01,famous,B,21,666,TRUE,s005,-0.24961,0.5625,0.088235,-0.5625,<undefined>,-0.13388,-0.25712,0.055556,0.25613,0.1,0.14706,-0.26961,-0.2955,-0.32779,-0.34283,-0.16019,-0.077778,-0.25425,-0.36366,0.22,0.25,<undefined>,-0.039892,-0.14286,-0.39659,-0.38927,-0.35714,-0.45904,0.02381,-0.30598,0.033333,-0.062843,-0.53938,-0.24282,-0.30474,-0.61803,-0.91176,-0.40686,0.02381,0.5,-0.45792,-0.2037,<undefined>,-0.26151,-0.29321
C08,control,F01,famous,B,29,765,TRUE,s006,0.23684,0.058058,-0.34198,-0.17678,-0.13388,<undefined>,0.24218,-0.2894,-0.051777,-0.17586,-0.078143,-0.5,0.34911,0.40377,-0.62944,0.32322,-0.33682,0.46875,0.066074,-0.39255,-0.24497,<undefined>,0.07784,-0.28033,-0.23739,0.041842,-0.33839,-0.28889,-0.11905,0.34211,-0.072303,0.19373,-0.080291,0.40625,-0.082983,-0.078947,-0.27898,0.0031773,-0.21767,-0.20267,0.11111,-0.24074,<undefined>,-0.22896,0.13158
C10,control,F01,famous,B,87,1161,TRUE,s007,0.20343,-0.2095,-0.32376,-0.030578,-0.25712,0.24218,<undefined>,-0.18409,-0.24556,-0.42717,-0.26937,-0.71358,0.54762,0.47619,-0.71358,0.012255,-0.29586,0.57143,0.47917,-0.26225,-0.13737,<undefined>,0.29606,-0.29318,-0.14286,0.19643,-0.29657,-0.20825,0.26261,0.12792,-0.28093,0.4,-0.13793,0.42857,0.38095,0.027895,-0.095238,0.22222,-0.37138,-0.066643,0.33742,-0.074074,<undefined>,-0.013889,0.47619
C11,control,F01,famous,B,15,1490,TRUE,s008,0.037037,0.092593,0.2963,0.33651,0.055556,-0.2894,-0.18409,<undefined>,-0.2037,0.22858,0,-0.18727,-0.25236,-0.085693,-0.23965,-0.12328,0.11111,-0.19045,-0.25236,0.36774,0.26244,<undefined>,-0.30688,-0.12963,-0.37037,-0.26427,0.092593,-0.33587,-0.14815,-0.046024,-0.18519,-0.22113,-0.65517,-0.1968,-0.32698,-0.33333,-0.62963,-0.16612,0.10848,0.27778,-0.11692,-0.34232,<undefined>,-0.13848,-0.098402
C12,control,F01,famous,B,120,983,TRUE,s009,-0.17518,0.16161,-0.088235,-0.5,0.25613,-0.051777,-0.24556,-0.2037,<undefined>,0.033333,0.20588,-0.45267,-0.19194,-0.14435,-0.5,-0.071429,-0.23333,-0.14379,-0.15237,-0.18,-0.1,<undefined>,0.023158,-0.24387,-0.10271,-0.15152,-0.42857,-0.42492,-0.071429,-0.14435,0.47239,-0.076569,-0.23496,-0.12447,-0.18161,-0.14435,-0.45545,-0.23439,-0.071429,-0.071429,-0.27778,-0.03386,<undefined>,-0.13889,-0.19698
C14,control,F01,famous,B,95,717,TRUE,s010,0.057921,0.34375,0.11765,0.28125,0.1,-0.17586,-0.42717,0.22858,0.033333,<undefined>,0.11765,0.022367,-0.4928,-0.30147,-0.24908,-0.14379,0,-0.41421,-0.41187,-0.12,0.28358,<undefined>,-0.28423,-0.16667,-0.61905,-0.3862,0.16667,-0.43968,-0.24148,0.16318,0.066667,-0.29941,-0.47093,-0.42565,-0.4714,-0.48645,<undefined>,-0.34495,0.38095,0.028595,-0.43015,-0.26825,<undefined>,-0.27539,-0.31953
C15,control,F01,famous,B,18,1060,TRUE,s011,-0.074432,0.14706,-0.14201,-0.5,0.14706,-0.078143,-0.26937,0,0.20588,0.11765,<undefined>,-0.25879,-0.30334,-0.35939,-0.5,-0.32353,-0.2,-0.27811,-0.16901,-0.16,-0.025,<undefined>,-0.014283,-0.20588,-0.20203,-0.10662,-0.38235,-0.43777,0.19865,-0.11803,0.64706,-0.19314,-0.16058,-0.28821,-0.078898,-0.1797,-0.29412,-0.16612,0.047619,0.049597,-0.42456,0.1545,<undefined>,-0.20833,-0.3105
C18,control,F01,famous,B,52,951,TRUE,s012,-0.33308,0.058058,-0.27898,-0.19194,-0.26961,-0.5,-0.71358,-0.18727,-0.45267,0.022367,-0.25879,<undefined>,-0.81694,-0.65789,0.41161,-0.375,-0.31236,-0.78569,-0.64226,-0.37314,-0.22426,<undefined>,-0.49408,-0.62944,<undefined>,-0.60714,-0.14017,-0.53333,-0.60201,-0.24058,-0.3223,-0.46,-0.60345,-0.72319,-0.74148,-0.65789,<undefined>,-0.61111,-0.097921,-0.42494,-0.66667,-0.50899,<undefined>,-0.18968,-0.65789
C20,control,F01,famous,B,160,776,TRUE,s013,0.15867,-0.30622,-0.37053,0.0062816,-0.2955,0.34911,0.54762,-0.25236,-0.19194,-0.4928,-0.30334,-0.81694,<undefined>,0.44737,-0.85355,0.17233,-0.29237,0.78125,0.5,-0.34569,-0.2364,<undefined>,0.14681,-0.31694,-0.11905,0.14286,-0.358,-0.26667,0.079599,0.14964,-0.26425,0.42,-0.18966,0.71875,0.35714,0.013545,-0.10251,0.12963,-0.45915,-0.019607,0.31032,-0.092593,<undefined>,-0.11111,0.34211
C21,control,F01,famous,B,78,1053,TRUE,s014,0.23762,-0.28418,-0.29773,0.075207,-0.32779,0.40377,0.47619,-0.085693,-0.14435,-0.30147,-0.35939,-0.65789,0.44737,<undefined>,-0.71053,0.066177,-0.3165,0.57895,0.1875,-0.44971,-0.099264,<undefined>,0.074882,-0.34585,-0.24965,0.44643,-0.31501,-0.18333,-0.11018,0.31205,-0.25413,0.16686,0,0.52632,0.083684,0.31579,-0.13983,0.40741,-0.18907,-0.095458,0.5,-0.12908,<undefined>,0.069444,0.68421
C22,control,F01,famous,B,152,763,TRUE,s015,-0.25335,-0.35355,-0.037773,-0.28033,-0.34283,-0.62944,-0.71358,-0.23965,-0.5,-0.24908,-0.5,0.41161,-0.85355,-0.71053,<undefined>,-0.27589,-0.30697,-0.8223,-0.66667,-0.16912,-0.29497,<undefined>,-0.45368,-0.62944,<undefined>,-0.64286,-0.082107,-0.54444,-0.60201,-0.31501,-0.46875,-0.36627,-0.63793,-0.7598,-0.76937,-0.71053,<undefined>,-0.62645,-0.27684,-0.51961,-0.72222,-0.55238,<undefined>,-0.34007,-0.64886
C25,control,F01,famous,B,88,700,TRUE,s016,0.0045151,-0.11428,0.0008658,0.19822,-0.16019,0.32322,0.012255,-0.12328,-0.071429,-0.14379,-0.32353,-0.375,0.17233,0.066177,-0.27589,<undefined>,-0.26095,0.21716,-0.051777,-0.11941,-0.041421,<undefined>,-0.025608,-0.45118,-0.41632,-0.071429,0.042893,-0.36667,-0.11905,0.066177,-0.1,0.050294,-0.30147,0.32749,-0.10271,-0.18421,-0.5,-0.055556,-0.1306,-0.14286,0.16667,-0.27778,<undefined>,-0.21746,0.13158
C28,control,F01,famous,B,31,2241,TRUE,s017,-0.15174,-0.12222,-0.17778,-0.1,-0.077778,-0.33682,-0.29586,0.11111,-0.23333,0,-0.2,-0.31236,-0.29237,-0.3165,-0.30697,-0.26095,<undefined>,-0.36095,-0.16062,0.066667,-0.077778,<undefined>,-0.19395,-0.16667,-0.24984,-0.2219,-0.18889,-0.37919,-0.094281,-0.10349,-0.22222,-0.15332,-0.4146,-0.36476,-0.16095,-0.24984,-0.42761,-0.17936,0.10191,-0.14444,-0.29619,-0.24984,<undefined>,-0.15142,-0.28889
C29,control,F01,famous,B,53,945,TRUE,s018,0.088752,-0.21247,-0.29239,0.11075,-0.25425,0.46875,0.57143,-0.19045,-0.14379,-0.41421,-0.27811,-0.78569,0.78125,0.57895,-0.8223,0.21716,-0.36095,<undefined>,0.35417,-0.39882,-0.15282,<undefined>,0.17241,-0.30474,-0.14286,0.23214,-0.43137,-0.25,0.01634,0.23762,-0.1933,0.28,-0.10345,0.8,0.19048,0.052632,-0.058824,0.18519,-0.37955,0.051472,0.41667,-0.11111,<undefined>,-0.041667,0.36842
C31,control,F01,famous,B,14,1342,TRUE,s019,-0.041053,-0.37081,-0.27676,-0.02022,-0.36366,0.066074,0.47917,-0.25236,-0.15237,-0.41187,-0.16901,-0.64226,0.5,0.1875,-0.66667,-0.051777,-0.16062,0.35417,<undefined>,-0.34569,-0.24581,<undefined>,0.30494,-0.33333,-0.048202,0.3694,-0.33629,-0.17778,0.069649,-0.048202,-0.14165,0.26,0.029074,0.3125,0.35417,0.3125,0.020833,0.27778,-0.42616,-0.13807,0.375,-0.051833,<undefined>,0.22222,0.1875
C32,control,F01,famous,B,31,1203,TRUE,s020,0.08,0.02,0.4,0.00058875,0.22,-0.39255,-0.26225,0.36774,-0.18,-0.12,-0.16,-0.37314,-0.34569,-0.44971,-0.16912,-0.11941,0.066667,-0.39882,-0.34569,<undefined>,0.12343,<undefined>,-0.3128,-0.3,-0.52,-0.5204,0.18,-0.43015,0.046863,-0.2,-0.28,-0.078823,-0.68619,-0.40569,-0.42627,-0.52,-0.84,-0.437,-0.24,0.10686,-0.36627,-0.3947,<undefined>,-0.36942,-0.28971
C33,control,F01,famous,B,41,1198,TRUE,s021,0.27145,0.1,0.40429,0.15858,0.25,-0.24497,-0.13737,0.26244,-0.1,0.28358,-0.025,-0.22426,-0.2364,-0.099264,-0.29497,-0.041421,-0.077778,-0.15282,-0.24581,0.12343,<undefined>,<undefined>,-0.22904,-0.05,-0.30952,-0.18978,0.2,-0.39047,0.11566,-0.1114,-0.075,-0.21598,-0.55713,-0.1614,-0.32108,-0.325,-0.725,-0.23702,0.18301,0.37929,-0.10355,-0.21904,<undefined>,-0.11309,-0.057843
C34,control,F01,famous,B,29,2749,FALSE,s022,<undefined>,<undefined>,<undefined>,<undefined>,<undefined>,<undefined>,<undefined>,<undefined>,<undefined>,<undefined>,<undefined>,<undefined>,<undefined>,<undefined>,<undefined>,<undefined>,<undefined>,<undefined>,<undefined>,<undefined>,<undefined>,<undefined>,<undefined>,<undefined>,<undefined>,<undefined>,<undefined>,<undefined>,<undefined>,<undefined>,<undefined>,<undefined>,<undefined>,<undefined>,<undefined>,<undefined>,<undefined>,<undefined>,<undefined>,<undefined>,<undefined>,<undefined>,<undefined>,<undefined>,<undefined>
C37,control,F01,famous,B,123,1526,TRUE,s023,-0.0024506,-0.045808,-0.28076,-0.24087,-0.039892,0.07784,0.29606,-0.30688,0.023158,-0.28423,-0.014283,-0.49408,0.14681,0.074882,-0.45368,-0.025608,-0.19395,0.17241,0.30494,-0.3128,-0.22904,<undefined>,<undefined>,-0.21822,0.0059163,0.2931,-0.36452,-0.21476,0.14385,0.095081,0.034483,0.37931,0.11528,0.13793,0.17833,0.074882,0.034483,0.080798,-0.18323,-0.12314,0.043357,0.034483,<undefined>,0.10199,0.10936
C39,control,F01,famous,B,84,637,TRUE,s024,-0.23684,-0.1875,-0.14706,-0.46339,-0.14286,-0.28033,-0.29318,-0.12963,-0.24387,-0.16667,-0.20588,-0.62944,-0.31694,-0.34585,-0.62944,-0.45118,-0.16667,-0.30474,-0.33333,-0.3,-0.05,<undefined>,-0.21822,<undefined>,-0.02381,-0.32143,-0.25,-0.46746,0.21429,-0.37668,-0.16667,-0.38284,-0.32759,-0.2747,-0.071429,-0.14435,-0.20588,-0.20634,-0.17822,0.21429,-0.28173,-0.12963,<undefined>,-0.20118,-0.30224
C40,control,F01,famous,B,25,1255,TRUE,s025,-0.38095,-0.50338,-0.51564,-0.59524,-0.39659,-0.23739,-0.14286,-0.37037,-0.10271,-0.61905,-0.20203,<undefined>,-0.11905,-0.24965,<undefined>,-0.41632,-0.24984,-0.14286,-0.048202,-0.52,-0.30952,<undefined>,0.0059163,-0.02381,<undefined>,-0.091824,-0.59524,-0.38333,-0.095238,-0.52381,-0.24148,-0.24,-0.063049,-0.19048,0.095238,0.047619,0.31022,-0.1201,-0.6306,-0.21429,-0.30952,0.22222,<undefined>,-0.064679,-0.24965
C41,control,F01,famous,B,48,1632,TRUE,s026,-0.035189,-0.37701,-0.3209,-0.059173,-0.38927,0.041842,0.19643,-0.26427,-0.15152,-0.3862,-0.10662,-0.60714,0.14286,0.44643,-0.64286,-0.071429,-0.2219,0.23214,0.3694,-0.5204,-0.18978,<undefined>,0.2931,-0.32143,-0.091824,<undefined>,-0.37447,-0.13333,0.015319,-0.0056019,-0.077031,0.071954,0.39655,0.19643,0.27398,0.30357,0.125,0.36021,-0.2816,-0.22549,0.35714,0.086748,<undefined>,0.29405,0.34541
C42,control,F01,famous,B,126,1457,TRUE,s027,0.37294,-0.125,0.55882,0.27145,-0.35714,-0.33839,-0.29657,0.092593,-0.42857,0.16667,-0.38235,-0.14017,-0.358,-0.31501,-0.082107,0.042893,-0.18889,-0.43137,-0.33629,0.18,0.2,<undefined>,-0.36452,-0.25,-0.59524,-0.37447,<undefined>,-0.45174,-0.26529,0.026316,-0.36667,-0.26,-0.4596,-0.42081,-0.44759,-0.40751,<undefined>,-0.28676,-0.02381,-0.21429,-0.28173,-0.43491,<undefined>,-0.35158,-0.16615
C43,control,F01,famous,B,99,5211,TRUE,s028,-0.33968,-0.43412,-0.42206,-0.34444,-0.45904,-0.28889,-0.20825,-0.33587,-0.42492,-0.43968,-0.43777,-0.53333,-0.26667,-0.18333,-0.54444,-0.36667,-0.37919,-0.25,-0.17778,-0.43015,-0.39047,<undefined>,-0.21476,-0.46746,-0.38333,-0.13333,-0.45174,<undefined>,-0.3738,-0.29444,-0.43508,-0.22778,-0.29444,-0.28333,-0.30556,-0.29444,-0.40556,-0.13238,-0.37761,-0.40349,-0.22222,-0.33508,<undefined>,-0.18698,-0.23698
C46,control,F01,famous,B,68,1019,TRUE,s029,0.095238,-0.02381,-0.2102,-0.35714,0.02381,-0.11905,0.26261,-0.14815,-0.071429,-0.24148,0.19865,-0.60201,0.079599,-0.11018,-0.60201,-0.11905,-0.094281,0.01634,0.069649,0.046863,0.11566,<undefined>,0.14385,0.21429,-0.095238,0.015319,-0.26529,-0.3738,<undefined>,-0.28571,0.14286,-0.056569,-0.13793,0.0081701,0.43674,-0.067344,-0.095238,0.13017,-0.30065,0.11905,-0.12243,0.11747,<undefined>,0.0051748,0.0803
C48,control,F01,famous,B,43,1064,TRUE,s030,0.47368,-0.030056,0,0.13158,-0.30598,0.34211,0.12792,-0.046024,-0.14435,0.16318,-0.11803,-0.24058,0.14964,0.31205,-0.31501,0.066177,-0.10349,0.23762,-0.048202,-0.2,-0.1114,<undefined>,0.095081,-0.37668,-0.52381,-0.0056019,0.026316,-0.29444,-0.28571,<undefined>,-0.065402,0.22343,-0.17241,0.22859,-0.19048,-0.32856,-0.47368,-0.039669,0.27078,-0.21878,-0.026316,-0.18519,<undefined>,-0.25912,-0.0037404
C49,control,F01,famous,B,10,804,TRUE,s031,-0.10526,0.03125,-0.23529,-0.46875,0.033333,-0.072303,-0.28093,-0.18519,0.47239,0.066667,0.64706,-0.3223,-0.26425,-0.25413,-0.46875,-0.1,-0.22222,-0.1933,-0.14165,-0.28,-0.075,<undefined>,0.034483,-0.16667,-0.24148,-0.077031,-0.36667,-0.43508,0.14286,-0.065402,<undefined>,-0.12,-0.12018,-0.20474,-0.034663,-0.074432,-0.23529,-0.14815,-0.095238,-0.18284,-0.31904,0.074074,<undefined>,-0.16428,-0.30676
C50,control,F01,famous,B,97,1372,TRUE,s032,0.16,-0.022843,-0.19598,-0.19941,-0.062843,0.19373,0.4,-0.22113,-0.076569,-0.29941,-0.19314,-0.46,0.42,0.16686,-0.36627,0.050294,-0.15332,0.28,0.26,-0.078823,-0.21598,<undefined>,0.37931,-0.38284,-0.24,0.071954,-0.26,-0.22778,-0.056569,0.22343,-0.12,<undefined>,-0.25811,0.24,0.08,-0.18627,-0.26627,0.034405,-0.22912,-0.21598,0.0034315,-0.20053,<undefined>,-0.1988,0.04
C51,control,F01,famous,B,159,1712,TRUE,s033,-0.24138,-0.47388,-0.51969,-0.43103,-0.53938,-0.080291,-0.13793,-0.65517,-0.23496,-0.47093,-0.16058,-0.60345,-0.18966,0,-0.63793,-0.30147,-0.4146,-0.10345,0.029074,-0.68619,-0.55713,<undefined>,0.11528,-0.32759,-0.063049,0.39655,-0.4596,-0.29444,-0.13793,-0.17241,-0.12018,-0.25811,<undefined>,-0.13793,0.080798,-0.034483,0.24138,0.040399,-0.47093,-0.43103,-0.13151,0.032032,<undefined>,-0.13174,-0.097532
C54,control,F01,famous,B,154,768,TRUE,s034,0.079722,-0.22319,-0.30248,0.10003,-0.24282,0.40625,0.42857,-0.1968,-0.12447,-0.42565,-0.28821,-0.72319,0.71875,0.52632,-0.7598,0.32749,-0.36476,0.8,0.3125,-0.40569,-0.1614,<undefined>,0.13793,-0.2747,-0.19048,0.19643,-0.42081,-0.28333,0.0081701,0.22859,-0.20474,0.24,-0.13793,<undefined>,0.14286,0,-0.11765,0.14815,-0.38772,0.084735,0.36111,-0.14815,<undefined>,-0.069444,0.31579
C55,control,F01,famous,B,118,1033,TRUE,s035,-0.14286,-0.32108,-0.46802,-0.28163,-0.30474,-0.082983,0.38095,-0.32698,-0.18161,-0.4714,-0.078898,-0.74148,0.35714,0.083684,-0.76937,-0.10271,-0.16095,0.19048,0.35417,-0.42627,-0.32108,<undefined>,0.17833,-0.071429,0.095238,0.27398,-0.44759,-0.30556,0.43674,-0.19048,-0.034663,0.08,0.080798,0.14286,<undefined>,0.13947,0.17892,0.25926,-0.53058,-0.11088,0.084385,0.2963,<undefined>,0.018655,0.20682
C56,control,F01,famous,B,156,1017,TRUE,s036,-0.32856,-0.59997,-0.42105,-0.13158,-0.61803,-0.078947,0.027895,-0.33333,-0.14435,-0.48645,-0.1797,-0.65789,0.013545,0.31579,-0.71053,-0.18421,-0.24984,0.052632,0.3125,-0.52,-0.325,<undefined>,0.074882,-0.14435,0.047619,0.30357,-0.40751,-0.29444,-0.067344,-0.32856,-0.074432,-0.18627,-0.034483,0,0.13947,<undefined>,0.38648,0.24392,-0.44013,-0.39474,0.53083,-0.15078,<undefined>,0.15278,0.29399
C57,control,F01,famous,B,82,916,TRUE,s037,-0.57895,<undefined>,<undefined>,-0.61765,<undefined>,-0.27898,-0.095238,-0.62963,-0.45545,<undefined>,-0.29412,<undefined>,-0.10251,-0.13983,<undefined>,-0.5,-0.42761,-0.058824,0.020833,<undefined>,-0.725,<undefined>,0.034483,-0.20588,0.31022,0.125,<undefined>,-0.40556,-0.095238,-0.47368,-0.23529,-0.26627,0.24138,-0.11765,0.17892,0.38648,<undefined>,0.037037,-0.82108,-0.61765,-0.054738,0.019064,<undefined>,-0.15952,-0.22704
C58,control,F01,famous,B,72,1505,TRUE,s038,-0.017973,-0.3878,-0.30528,0.0031773,-0.40686,0.0031773,0.22222,-0.16612,-0.23439,-0.34495,-0.16612,-0.61111,0.12963,0.40741,-0.62645,-0.055556,-0.17936,0.18519,0.27778,-0.437,-0.23702,<undefined>,0.080798,-0.20634,-0.1201,0.36021,-0.28676,-0.13238,0.13017,-0.039669,-0.14815,0.034405,0.040399,0.14815,0.25926,0.24392,0.037037,<undefined>,-0.31427,-0.22168,0.26244,0.0063546,<undefined>,0.095248,0.33969
C60,control,F01,famous,B,131,1239,TRUE,s039,-0.031279,0.2619,-0.019724,0.12722,0.02381,-0.21767,-0.37138,0.10848,-0.071429,0.38095,0.047619,-0.097921,-0.45915,-0.18907,-0.27684,-0.1306,0.10191,-0.37955,-0.42616,-0.24,0.18301,<undefined>,-0.18323,-0.17822,-0.6306,-0.2816,-0.02381,-0.37761,-0.30065,0.27078,-0.095238,-0.22912,-0.47093,-0.38772,-0.53058,-0.44013,-0.82108,-0.31427,<undefined>,-0.063258,-0.20133,-0.2963,<undefined>,-0.14999,-0.17752
C61,control,F01,famous,B,22,667,TRUE,s040,-0.21878,0.1875,0.14706,-0.15089,0.5,-0.20267,-0.066643,0.27778,-0.071429,0.028595,0.049597,-0.42494,-0.019607,-0.095458,-0.51961,-0.14286,-0.14444,0.051472,-0.13807,0.10686,0.37929,<undefined>,-0.12314,0.21429,-0.21429,-0.22549,-0.21429,-0.40349,0.11905,-0.21878,-0.18284,-0.21598,-0.43103,0.084735,-0.11088,-0.39474,-0.61765,-0.22168,-0.063258,<undefined>,-0.20316,-0.16031,<undefined>,-0.15039,-0.11352
C63,control,F01,famous,B,49,1025,TRUE,s041,-0.12629,-0.42933,-0.19839,0.20874,-0.45792,0.11111,0.33742,-0.11692,-0.27778,-0.43015,-0.42456,-0.66667,0.31032,0.5,-0.72222,0.16667,-0.29619,0.41667,0.375,-0.36627,-0.10355,<undefined>,0.043357,-0.28173,-0.30952,0.35714,-0.28173,-0.22222,-0.12243,-0.026316,-0.31904,0.0034315,-0.13151,0.36111,0.084385,0.53083,-0.054738,0.26244,-0.20133,-0.20316,<undefined>,-0.20634,<undefined>,0.16667,0.56166
C64,control,F01,famous,B,35,1315,TRUE,s042,-0.25926,-0.17565,-0.40741,-0.46296,-0.2037,-0.24074,-0.074074,-0.34232,-0.03386,-0.26825,0.1545,-0.50899,-0.092593,-0.12908,-0.55238,-0.27778,-0.24984,-0.11111,-0.051833,-0.3947,-0.21904,<undefined>,0.034483,-0.12963,0.22222,0.086748,-0.43491,-0.33508,0.11747,-0.18519,0.074074,-0.20053,0.032032,-0.14815,0.2963,-0.15078,0.019064,0.0063546,-0.2963,-0.16031,-0.20634,<undefined>,<undefined>,-0.032135,-0.12908
C66,control,F01,famous,B,141,7965,FALSE,s043,<undefined>,<undefined>,<undefined>,<undefined>,<undefined>,<undefined>,<undefined>,<undefined>,<undefined>,<undefined>,<undefined>,<undefined>,<undefined>,<undefined>,<undefined>,<undefined>,<undefined>,<undefined>,<undefined>,<undefined>,<undefined>,<undefined>,<undefined>,<undefined>,<undefined>,<undefined>,<undefined>,<undefined>,<undefined>,<undefined>,<undefined>,<undefined>,<undefined>,<undefined>,<undefined>,<undefined>,<undefined>,<undefined>,<undefined>,<undefined>,<undefined>,<undefined>,<undefined>,<undefined>,<undefined>
C69,control,F01,famous,B,108,1781,TRUE,s044,-0.29364,-0.27975,-0.27737,-0.094839,-0.26151,-0.22896,-0.013889,-0.13848,-0.13889,-0.27539,-0.20833,-0.18968,-0.11111,0.069444,-0.34007,-0.21746,-0.15142,-0.041667,0.22222,-0.36942,-0.11309,<undefined>,0.10199,-0.20118,-0.064679,0.29405,-0.35158,-0.18698,0.0051748,-0.25912,-0.16428,-0.1988,-0.13174,-0.069444,0.018655,0.15278,-0.15952,0.095248,-0.14999,-0.15039,0.16667,-0.032135,<undefined>,<undefined>,0.10199
C71,control,F01,famous,B,18,1069,TRUE,s045,0.20679,-0.29695,-0.23607,0.075207,-0.29321,0.13158,0.47619,-0.098402,-0.19698,-0.31953,-0.3105,-0.65789,0.34211,0.68421,-0.64886,0.13158,-0.28889,0.36842,0.1875,-0.28971,-0.057843,<undefined>,0.10936,-0.30224,-0.24965,0.34541,-0.16615,-0.23698,0.0803,-0.0037404,-0.30676,0.04,-0.097532,0.31579,0.20682,0.29399,-0.22704,0.33969,-0.17752,-0.11352,0.56166,-0.12908,<undefined>,0.10199,<undefined>
C01,control,F01,famous,C,6,1092,TRUE,s001,<undefined>,-0.16989,-0.34959,0.17828,-0.27141,0.27145,0.27586,0.053406,-0.31699,-0.24884,0.47368,-0.86391,0.21956,-0.030056,-0.090943,-0.021026,-0.33876,0.275,0.42857,-0.27515,-0.25335,0.075981,0.030831,-0.043601,-0.067025,0.57895,0.19643,<undefined>,-0.38176,0.33385,0.39474,0.30205,0.15789,0.66241,0.047619,0.28947,-0.13979,0.1875,<undefined>,-0.30598,0.52632,-0.27141,<undefined>,0.090758,0.068966
C04,control,F01,famous,C,93,853,TRUE,s002,-0.16989,<undefined>,0.16667,-0.11179,0.27778,-0.070711,-0.28964,-0.055556,-0.02381,-0.027778,0.035346,-0.17538,0.13158,0,0.13889,-0.25871,-0.11905,0.05,-0.26529,0.27778,0.38889,-0.2461,-0.069917,-0.25,-0.18571,-0.26348,-0.065301,<undefined>,-0.12069,-0.19698,-0.20711,0.12722,-0.19839,-0.11029,-0.48366,-0.4119,-0.64286,-0.36366,<undefined>,0.38889,-0.18491,0.27778,<undefined>,-0.3378,-0.34677
C05,control,F01,famous,C,86,801,TRUE,s003,-0.34959,0.16667,<undefined>,-0.12979,0.21429,0.19645,-0.21476,0,-0.071429,-0.023459,-0.11726,-0.41993,-0.021026,-0.29105,-0.10474,-0.32775,0,-0.015685,-0.30812,0.42857,0.5625,-0.43115,-0.44737,-0.34789,-0.18571,-0.37614,-0.2107,<undefined>,0.037441,-0.13158,-0.38388,0.23063,-0.57038,-0.40499,-0.38025,-0.5079,-0.6454,-0.38092,<undefined>,0.5,-0.42034,0.16667,<undefined>,-0.35712,-0.38472
C06,control,F01,famous,C,75,1257,TRUE,s004,0.17828,-0.11179,-0.12979,<undefined>,-0.19874,0.323,0.43399,-0.14471,-0.39439,-0.086957,0.21739,-0.44842,-0.018009,0.1087,-0.090046,0.22858,-0.053046,0.0037298,0.13043,-0.37575,-0.050298,0.029199,0.11243,-0.13043,-0.18901,0.14535,-0.0056019,<undefined>,-0.33545,0.13043,0.25405,0.086957,0,0.31181,0,0.065217,-0.375,0.22917,<undefined>,-0.053388,0.21739,-0.31426,<undefined>,0.1374,-0.0024506
C07,control,F01,famous,C,22,473,TRUE,s005,-0.27141,0.27778,0.21429,-0.19874,<undefined>,-0.25,-0.399,-0.24523,-0.02381,0.26923,-0.10075,-0.30474,-0.13158,-0.125,0.16667,-0.33728,-0.16667,0,-0.36053,0.21429,0,-0.16622,-0.082688,-0.053777,-0.038462,-0.30474,-0.17857,<undefined>,-0.15517,-0.34585,-0.29105,-0.02381,-0.2747,-0.26889,-0.44421,-0.33728,-0.5,-0.37796,<undefined>,0.4375,-0.2747,0.055556,<undefined>,-0.41385,-0.32759
C08,control,F01,famous,C,82,974,TRUE,s006,0.27145,-0.070711,0.19645,0.323,-0.25,<undefined>,0.12416,0.35,-0.20612,-0.025,0.20429,-0.55282,0.275,0.17929,0.054289,0.26716,-0.13877,0.079289,0.18301,-0.086396,0.28787,-0.090909,-0.075,-0.225,-0.15385,0.20429,0.10714,<undefined>,-0.21231,0.27145,0.037868,0.2898,-0.025,0.23003,-0.11905,-0.020711,-0.35714,0.021447,<undefined>,-0.082843,0.19216,-0.17071,<undefined>,-0.080233,-0.031525
C10,control,F01,famous,C,119,1485,TRUE,s007,0.27586,-0.28964,-0.21476,0.43399,-0.399,0.12416,<undefined>,-0.14579,-0.33299,-0.17241,0.28178,-0.59702,-0.0083669,-0.051724,-0.2118,0.040907,-0.058823,0.07784,0.46848,-0.40982,-0.18619,0.017241,-0.097532,-0.034483,0.10641,0.10345,0.14681,<undefined>,-0.45318,0.072431,0.15517,0.037948,-0.068966,0.34483,0.24138,0.15517,0.051724,0.2931,<undefined>,-0.28372,0.17241,-0.36452,<undefined>,0.29455,0.026116
C11,control,F01,famous,C,87,851,TRUE,s008,0.053406,-0.055556,0,-0.14471,-0.24523,0.35,-0.14579,<undefined>,-0.055088,0.014298,0.026316,-0.59123,0.053406,0.13971,0.13889,0.11111,-0.11905,-0.012132,-0.027194,-0.092047,0.16667,-0.075312,0.11881,-0.083333,-0.23077,0.0008177,0.047969,<undefined>,-0.32759,0.60526,0.0095318,0.079599,-0.0087141,0.01035,-0.32925,-0.25871,-0.45816,-0.27022,<undefined>,-0.24523,-0.031726,-0.20316,<undefined>,-0.16638,-0.0054088
C12,control,F01,famous,C,12,1020,TRUE,s009,-0.31699,-0.02381,-0.071429,-0.39439,-0.02381,-0.20612,-0.33299,-0.055088,<undefined>,0.17075,-0.090452,-0.46662,0.18709,-0.02381,0.33333,-0.16667,-0.083333,0.26669,-0.10679,-0.071429,-0.11905,0.20132,0.32178,-0.067344,0.18627,-0.14624,0.14592,<undefined>,-0.039384,0.036065,-0.27346,0.12313,-0.2381,-0.27276,-0.15441,-0.066643,-0.31224,-0.17616,<undefined>,0.11905,-0.30882,0.5,<undefined>,-0.11721,-0.2926
C14,control,F01,famous,C,126,631,TRUE,s010,-0.24884,-0.027778,-0.023459,-0.086957,0.26923,-0.025,-0.17241,0.014298,0.17075,<undefined>,-0.034571,-0.50376,-0.052632,0.34375,0.43905,0.079385,-0.083333,0.021447,-0.31221,-0.16632,-0.083027,-0.25323,-0.096233,-0.37731,-0.16648,-0.35425,0.074492,<undefined>,-0.24383,-0.069143,-0.17586,-0.24965,-0.2681,-0.26802,-0.37278,-0.32298,-0.52652,-0.31842,<undefined>,0.15625,-0.19664,0.19444,<undefined>,-0.2815,-0.22118
C15,control,F01,famous,C,55,953,TRUE,s011,0.47368,0.035346,-0.11726,0.21739,-0.10075,0.20429,0.28178,0.026316,-0.090452,-0.034571,<undefined>,-0.77141,0.34662,-0.030056,0.18499,0.084237,-0.26733,0.55429,0.33333,-0.19169,-0.095458,0.049354,0.070692,-0.12706,0.080223,0.36842,0.41684,<undefined>,-0.27831,0.24136,0.44737,0.33812,0.15789,0.60978,0.075514,0.35114,-0.13979,0.22917,<undefined>,0.00077466,0.52632,-0.064627,<undefined>,0.13235,0.074882
C18,control,F01,famous,C,158,911,TRUE,s012,-0.86391,-0.17538,-0.41993,-0.44842,-0.30474,-0.55282,-0.59702,-0.59123,-0.46662,-0.50376,-0.77141,<undefined>,-0.63532,-0.37408,-0.60948,-0.55869,-0.29523,-0.69926,-0.80135,-0.41993,-0.31602,-0.62467,-0.50826,-0.76471,-0.57636,<undefined>,-0.60049,<undefined>,-0.232,-0.61726,-0.86964,-0.48296,-0.8,-0.88235,<undefined>,<undefined>,-0.76786,<undefined>,<undefined>,-0.29013,-0.93333,-0.38249,<undefined>,-0.62731,-0.75862
C20,control,F01,famous,C,23,990,TRUE,s013,0.21956,0.13158,-0.021026,-0.018009,-0.13158,0.275,-0.0083669,0.053406,0.18709,-0.052632,0.34662,-0.63532,<undefined>,-0.078947,0.21956,-0.10075,-0.26155,0.55429,0.12313,-0.021026,0.10604,0.19352,0.32482,-0.10526,0.13462,0.31579,0.16071,<undefined>,-0.15466,0.15789,0.14061,0.3415,0.10526,0.27219,-0.047619,0.23684,-0.16071,0.14583,<undefined>,-0.060887,0.26316,0.075207,<undefined>,0.0025231,-0.085699
C21,control,F01,famous,C,104,1022,TRUE,s014,-0.030056,0,-0.29105,0.1087,-0.125,0.17929,-0.051724,0.13971,-0.02381,0.34375,-0.030056,-0.37408,-0.078947,<undefined>,0.03125,0.23175,-0.16667,-0.14142,-0.1306,-0.41605,0.083947,-0.2461,0.078947,-0.46972,-0.30769,-0.09375,0.071429,<undefined>,-0.46797,0.11881,0.010723,-0.21429,-0.03125,0.059689,-0.25373,-0.15713,-0.46429,-0.17259,<undefined>,-0.3125,0.078585,-0.055556,<undefined>,-0.14706,-0.10049
C22,control,F01,famous,C,130,749,TRUE,s015,-0.090943,0.13889,-0.10474,-0.090046,0.16667,0.054289,-0.2118,0.13889,0.33333,0.43905,0.18499,-0.60948,0.21956,0.03125,<undefined>,0.14842,-0.13264,0.27145,-0.10679,-0.10474,-0.057138,0.049354,0.31579,-0.37731,-0.067025,-0.055228,0.23214,<undefined>,-0.14038,0.31205,0.089308,0.12313,0.039052,0.016005,-0.25782,-0.19839,-0.41071,-0.22498,<undefined>,0.15181,0.045753,0.36111,<undefined>,-0.19327,-0.16895
C25,control,F01,famous,C,52,883,TRUE,s016,-0.021026,-0.25871,-0.32775,0.22858,-0.33728,0.26716,0.040907,0.11111,-0.16667,0.079385,0.084237,-0.55869,-0.10075,0.23175,0.14842,<undefined>,-0.053396,-0.13284,-0.094537,-0.66108,-0.2357,-0.045455,0.16241,-0.36111,-0.34615,-0.041258,0.089811,<undefined>,-0.44185,0.2767,0.31985,-0.15033,0.11588,0.154,-0.16667,-0.069036,-0.39286,-0.044628,<undefined>,-0.24918,0.11193,-0.1476,<undefined>,-0.036548,-0.045808
C28,control,F01,famous,C,34,2053,TRUE,s017,-0.33876,-0.11905,0,-0.053046,-0.16667,-0.13877,-0.058823,-0.11905,-0.083333,-0.083333,-0.26733,-0.29523,-0.26155,-0.16667,-0.13264,-0.053396,<undefined>,-0.23979,-0.19182,-0.095238,-0.071429,-0.1306,-0.10306,-0.059524,-0.10102,-0.33298,-0.098622,<undefined>,0.10714,-0.13673,-0.3153,-0.14251,-0.33129,-0.33298,-0.18026,-0.17822,-0.40068,-0.17822,<undefined>,0.047619,-0.36496,-0.095238,<undefined>,-0.013246,-0.26325
C29,control,F01,famous,C,23,1177,TRUE,s018,0.275,0.05,-0.015685,0.0037298,0,0.079289,0.07784,-0.012132,0.26669,0.021447,0.55429,-0.69926,0.55429,-0.14142,0.27145,-0.13284,-0.23979,<undefined>,0.16667,-0.015685,-0.012132,0.098708,0.19216,-0.175,0.30769,0.375,0.39286,<undefined>,-0.10886,0.054289,0.15,0.32586,0.025,0.38358,-0.043534,0.25,-0.14286,0.16667,<undefined>,0.096447,0.375,0.12574,<undefined>,0.029412,0.0029582
C31,control,F01,famous,C,52,1198,TRUE,s019,0.42857,-0.26529,-0.30812,0.13043,-0.36053,0.18301,0.46848,-0.027194,-0.10679,-0.31221,0.33333,-0.80135,0.12313,-0.1306,-0.10679,-0.094537,-0.19182,0.16667,<undefined>,-0.30812,-0.24895,0.25,0,0.2381,0.25,0.33333,0.19389,<undefined>,-0.32708,0.27416,0.24218,0.22654,0.095238,0.52381,0.57143,0.36531,0.19643,0.36132,<undefined>,-0.36391,0.42857,-0.24556,<undefined>,0.14245,0.052232
C32,control,F01,famous,C,149,694,TRUE,s020,-0.27515,0.27778,0.42857,-0.37575,0.21429,-0.086396,-0.40982,-0.092047,-0.071429,-0.16632,-0.19169,-0.41993,-0.021026,-0.41605,-0.10474,-0.66108,-0.095238,-0.015685,-0.30812,<undefined>,0.3125,-0.43115,-0.45111,-0.34789,-0.14065,-0.37614,-0.2107,<undefined>,-0.019692,-0.24432,-0.50888,0.23063,-0.57038,-0.40499,-0.57073,-0.56345,-0.6454,-0.49877,<undefined>,0.5,-0.42034,0.22222,<undefined>,-0.46468,-0.34432
C33,control,F01,famous,C,157,929,TRUE,s021,-0.25335,0.38889,0.5625,-0.050298,0,0.28787,-0.18619,0.16667,-0.11905,-0.083027,-0.095458,-0.31602,0.10604,0.083947,-0.057138,-0.2357,-0.071429,-0.012132,-0.24895,0.3125,<undefined>,-0.36364,-0.13158,-0.45545,-0.26923,-0.31158,-0.1454,<undefined>,-0.045808,0.026316,-0.38388,0.18301,-0.30714,-0.29743,-0.42787,-0.51743,-0.62194,-0.40829,<undefined>,0.25,-0.32675,0.22222,<undefined>,-0.3693,-0.37289
C34,control,F01,famous,C,150,1398,TRUE,s022,0.075981,-0.2461,-0.43115,0.029199,-0.16622,-0.090909,0.017241,-0.075312,0.20132,-0.25323,0.049354,-0.62467,0.19352,-0.2461,0.049354,-0.045455,-0.1306,0.098708,0.25,-0.43115,-0.36364,<undefined>,0.47727,0.23897,0.23077,0.10261,-0.050508,<undefined>,-0.37534,0.11364,0.0077988,-0.014929,-0.014929,0.20455,0.38636,0.45455,0.17857,0.25715,<undefined>,-0.24933,0.068182,-0.048685,<undefined>,0.16933,-0.042342
C37,control,F01,famous,C,74,919,TRUE,s023,0.030831,-0.069917,-0.44737,0.11243,-0.082688,-0.075,-0.097532,0.11881,0.32178,-0.096233,0.070692,-0.50826,0.32482,0.078947,0.31579,0.16241,-0.10306,0.19216,0,-0.45111,-0.13158,0.47727,<undefined>,0.10526,0.057692,0.19776,0.11021,<undefined>,-0.30096,0.31579,0.078947,0.027895,0.052632,0.18873,-0.047619,0.18421,-0.19643,0.10417,<undefined>,-0.24058,0.10526,0.11881,<undefined>,0.0004329,-0.077332
C39,control,F01,famous,C,60,882,TRUE,s024,-0.043601,-0.25,-0.34789,-0.13043,-0.053777,-0.225,-0.034483,-0.083333,-0.067344,-0.37731,-0.12706,-0.76471,-0.10526,-0.46972,-0.37731,-0.36111,-0.059524,-0.175,0.2381,-0.34789,-0.45545,0.23897,0.10526,<undefined>,0.096154,-0.11765,-0.1903,<undefined>,-0.24138,-0.21053,-0.1857,-0.2381,-0.18065,0.11765,0.22654,0.25,-0.0056019,0.0035744,<undefined>,-0.20588,-0.058824,-0.31904,<undefined>,-0.073529,0.0202
C40,control,F01,famous,C,9,1460,TRUE,s025,-0.067025,-0.18571,-0.18571,-0.18901,-0.038462,-0.15385,0.10641,-0.23077,0.18627,-0.16648,0.080223,-0.57636,0.13462,-0.30769,-0.067025,-0.34615,-0.10102,0.30769,0.25,-0.14065,-0.26923,0.23077,0.057692,0.096154,<undefined>,-0.012632,0,<undefined>,-0.036426,-0.17308,-0.17251,-0.012632,-0.19834,0.019231,0.17308,0.15385,0.27092,0.076923,<undefined>,-0.10879,-0.096154,-0.063725,<undefined>,0.032368,-0.12314
C41,control,F01,famous,C,50,909,TRUE,s026,0.57895,-0.26348,-0.37614,0.14535,-0.30474,0.20429,0.10345,0.0008177,-0.14624,-0.35425,0.36842,-1,0.31579,-0.09375,-0.055228,-0.041258,-0.33298,0.375,0.33333,-0.37614,-0.31158,0.10261,0.19776,-0.11765,-0.012632,<undefined>,0.125,<undefined>,-0.29851,0.31579,0.28125,0.2381,0.2,0.52941,0.0081701,0.25,-0.16071,0.21191,<undefined>,-0.44102,0.6,-0.3095,<undefined>,0.014706,0
C42,control,F01,famous,C,59,1379,TRUE,s027,0.19643,-0.065301,-0.2107,-0.0056019,-0.17857,0.10714,0.14681,0.047969,0.14592,0.074492,0.41684,-0.60049,0.16071,0.071429,0.23214,0.089811,-0.098622,0.39286,0.19389,-0.2107,-0.1454,-0.050508,0.11021,-0.1903,0,0.125,<undefined>,<undefined>,-0.27535,0.25919,0.10714,0.2444,0.017857,0.30357,-0.020395,0.11327,-0.18111,0.083684,<undefined>,-0.1306,0.19643,0.077556,<undefined>,0.17647,0.28474
C43,control,F01,famous,C,105,1454,FALSE,s028,<undefined>,<undefined>,<undefined>,<undefined>,<undefined>,<undefined>,<undefined>,<undefined>,<undefined>,<undefined>,<undefined>,<undefined>,<undefined>,<undefined>,<undefined>,<undefined>,<undefined>,<undefined>,<undefined>,<undefined>,<undefined>,<undefined>,<undefined>,<undefined>,<undefined>,<undefined>,<undefined>,<undefined>,<undefined>,<undefined>,<undefined>,<undefined>,<undefined>,<undefined>,<undefined>,<undefined>,<undefined>,<undefined>,<undefined>,<undefined>,<undefined>,<undefined>,<undefined>,<undefined>,<undefined>
C46,control,F01,famous,C,29,1563,TRUE,s029,-0.38176,-0.12069,0.037441,-0.33545,-0.15517,-0.21231,-0.45318,-0.32759,-0.039384,-0.24383,-0.27831,-0.232,-0.15466,-0.46797,-0.14038,-0.44185,0.10714,-0.10886,-0.32708,-0.019692,-0.045808,-0.37534,-0.30096,-0.24138,-0.036426,-0.29851,-0.27535,<undefined>,<undefined>,-0.33299,-0.43103,0.054682,-0.34483,-0.36993,-0.23546,-0.39655,-0.55122,-0.2325,<undefined>,0.086207,-0.37584,-0.076825,<undefined>,-0.4042,-0.44481
C48,control,F01,famous,C,75,1086,TRUE,s030,0.33385,-0.19698,-0.13158,0.13043,-0.34585,0.27145,0.072431,0.60526,0.036065,-0.069143,0.24136,-0.61726,0.15789,0.11881,0.31205,0.2767,-0.13673,0.054289,0.27416,-0.24432,0.026316,0.11364,0.31579,-0.21053,-0.17308,0.31579,0.25919,<undefined>,-0.33299,<undefined>,0.34211,0.28571,0.15789,0.34288,-0.095238,0.078947,-0.30357,-0.013684,<undefined>,-0.34959,0.30302,-0.13532,<undefined>,0.036981,0.0059163
C49,control,F01,famous,C,95,791,TRUE,s031,0.39474,-0.20711,-0.38388,0.25405,-0.29105,0.037868,0.15517,0.0095318,-0.27346,-0.17586,0.44737,-0.86964,0.14061,0.010723,0.089308,0.31985,-0.3153,0.15,0.24218,-0.50888,-0.38388,0.0077988,0.078947,-0.1857,-0.17251,0.28125,0.10714,<undefined>,-0.43103,0.34211,<undefined>,0.071429,0.53125,0.53446,-0.015639,0.22222,-0.22908,0.14941,<undefined>,-0.27405,0.53125,-0.16108,<undefined>,0.17647,0.18966
C50,control,F01,famous,C,108,1163,TRUE,s032,0.30205,0.12722,0.23063,0.086957,-0.02381,0.2898,0.037948,0.079599,0.12313,-0.24965,0.33812,-0.48296,0.3415,-0.21429,0.12313,-0.15033,-0.14251,0.32586,0.22654,0.23063,0.18301,-0.014929,0.027895,-0.2381,-0.012632,0.2381,0.2444,<undefined>,0.054682,0.28571,0.071429,<undefined>,-0.047619,0.26261,-0.14286,0.02381,-0.33929,-0.055351,<undefined>,0.12722,0.22654,0.12722,<undefined>,-0.13444,-0.13201
C51,control,F01,famous,C,93,902,TRUE,s033,0.15789,-0.19839,-0.57038,0,-0.2747,-0.025,-0.068966,-0.0087141,-0.2381,-0.2681,0.15789,-0.8,0.10526,-0.03125,0.039052,0.11588,-0.33129,0.025,0.095238,-0.57038,-0.30714,-0.014929,0.052632,-0.18065,-0.19834,0.2,0.017857,<undefined>,-0.34483,0.15789,0.53125,-0.047619,<undefined>,0.23529,-0.11496,0.13889,-0.24694,0.0625,<undefined>,-0.38925,0.46154,-0.06427,<undefined>,0.014706,0.034483
C54,control,F01,famous,C,138,979,TRUE,s034,0.66241,-0.11029,-0.40499,0.31181,-0.26889,0.23003,0.34483,0.01035,-0.27276,-0.26802,0.60978,-0.88235,0.27219,0.059689,0.016005,0.154,-0.33298,0.38358,0.52381,-0.40499,-0.29743,0.20455,0.18873,0.11765,0.019231,0.52941,0.30357,<undefined>,-0.36993,0.34288,0.53446,0.26261,0.23529,<undefined>,0.19048,0.47222,-0.053571,0.3125,<undefined>,-0.23861,0.64706,-0.28091,<undefined>,0.16176,0.19261
C55,control,F01,famous,C,136,1020,TRUE,s035,0.047619,-0.48366,-0.38025,0,-0.44421,-0.11905,0.24138,-0.32925,-0.15441,-0.37278,0.075514,-0.82925,-0.047619,-0.25373,-0.25782,-0.16667,-0.18026,-0.043534,0.57143,-0.57073,-0.42787,0.38636,-0.047619,0.22654,0.17308,0.0081701,-0.020395,<undefined>,-0.23546,-0.095238,-0.015639,-0.14286,-0.11496,0.19048,<undefined>,0.57551,0.27398,0.54524,<undefined>,-0.49183,0.095238,-0.3408,<undefined>,0.26723,-0.12018
C56,control,F01,famous,C,134,1059,TRUE,s036,0.28947,-0.4119,-0.5079,0.065217,-0.33728,-0.020711,0.15517,-0.25871,-0.066643,-0.32298,0.35114,-0.91667,0.23684,-0.15713,-0.19839,-0.069036,-0.17822,0.25,0.36531,-0.56345,-0.51743,0.45455,0.18421,0.25,0.15385,0.25,0.11327,<undefined>,-0.39655,0.078947,0.22222,0.02381,0.13889,0.47222,0.57551,<undefined>,0.21429,0.54167,<undefined>,-0.44839,0.41667,-0.29521,<undefined>,0.29412,0.069473
C57,control,F01,famous,C,70,1441,TRUE,s037,-0.13979,-0.64286,-0.6454,-0.375,-0.5,-0.35714,0.051724,-0.45816,-0.31224,-0.52652,-0.13979,-0.76786,-0.16071,-0.46429,-0.41071,-0.39286,-0.40068,-0.14286,0.19643,-0.6454,-0.62194,0.17857,-0.19643,-0.0056019,0.27092,-0.16071,-0.18111,<undefined>,-0.55122,-0.30357,-0.22908,-0.33929,-0.24694,-0.053571,0.27398,0.21429,<undefined>,0.16124,<undefined>,-0.60714,-0.089286,-0.47295,<undefined>,0.19161,-0.11376
C58,control,F01,famous,C,62,1189,TRUE,s038,0.1875,-0.36366,-0.38092,0.22917,-0.37796,0.021447,0.2931,-0.27022,-0.17616,-0.31842,0.22917,-0.8125,0.14583,-0.17259,-0.22498,-0.044628,-0.17822,0.16667,0.36132,-0.49877,-0.40829,0.25715,0.10417,0.0035744,0.076923,0.21191,0.083684,<undefined>,-0.2325,-0.013684,0.14941,-0.055351,0.0625,0.3125,0.54524,0.54167,0.16124,<undefined>,<undefined>,-0.37081,0.27083,-0.29759,<undefined>,0.41176,0.12069
C60,control,F01,famous,C,99,2639,FALSE,s039,<undefined>,<undefined>,<undefined>,<undefined>,<undefined>,<undefined>,<undefined>,<undefined>,<undefined>,<undefined>,<undefined>,<undefined>,<undefined>,<undefined>,<undefined>,<undefined>,<undefined>,<undefined>,<undefined>,<undefined>,<undefined>,<undefined>,<undefined>,<undefined>,<undefined>,<undefined>,<undefined>,<undefined>,<undefined>,<undefined>,<undefined>,<undefined>,<undefined>,<undefined>,<undefined>,<undefined>,<undefined>,<undefined>,<undefined>,<undefined>,<undefined>,<undefined>,<undefined>,<undefined>,<undefined>
C61,control,F01,famous,C,66,767,TRUE,s040,-0.30598,0.38889,0.5,-0.053388,0.4375,-0.082843,-0.28372,-0.24523,0.11905,0.15625,0.00077466,-0.29013,-0.060887,-0.3125,0.15181,-0.24918,0.047619,0.096447,-0.36391,0.5,0.25,-0.24933,-0.24058,-0.20588,-0.10879,-0.44102,-0.1306,<undefined>,0.086207,-0.34959,-0.27405,0.12722,-0.38925,-0.23861,-0.49183,-0.44839,-0.60714,-0.37081,<undefined>,<undefined>,-0.30086,0.27778,<undefined>,-0.31553,-0.26699
C63,control,F01,famous,C,68,795,TRUE,s041,0.52632,-0.18491,-0.42034,0.21739,-0.2747,0.19216,0.17241,-0.031726,-0.30882,-0.19664,0.52632,-0.93333,0.26316,0.078585,0.045753,0.11193,-0.36496,0.375,0.42857,-0.42034,-0.32675,0.068182,0.10526,-0.058824,-0.096154,0.6,0.19643,<undefined>,-0.37584,0.30302,0.53125,0.22654,0.46154,0.64706,0.095238,0.41667,-0.089286,0.27083,<undefined>,-0.30086,<undefined>,-0.32298,<undefined>,0.073529,0.13793
C64,control,F01,famous,C,68,1052,TRUE,s042,-0.27141,0.27778,0.16667,-0.31426,0.055556,-0.17071,-0.36452,-0.20316,0.5,0.19444,-0.064627,-0.38249,0.075207,-0.055556,0.36111,-0.1476,-0.095238,0.12574,-0.24556,0.22222,0.22222,-0.048685,0.11881,-0.31904,-0.063725,-0.3095,0.077556,<undefined>,-0.076825,-0.13532,-0.16108,0.12722,-0.06427,-0.28091,-0.3408,-0.29521,-0.47295,-0.29759,<undefined>,0.27778,-0.32298,<undefined>,<undefined>,-0.29116,-0.30984
C66,control,F01,famous,C,89,1609,FALSE,s043,<undefined>,<undefined>,<undefined>,<undefined>,<undefined>,<undefined>,<undefined>,<undefined>,<undefined>,<undefined>,<undefined>,<undefined>,<undefined>,<undefined>,<undefined>,<undefined>,<undefined>,<undefined>,<undefined>,<undefined>,<undefined>,<undefined>,<undefined>,<undefined>,<undefined>,<undefined>,<undefined>,<undefined>,<undefined>,<undefined>,<undefined>,<undefined>,<undefined>,<undefined>,<undefined>,<undefined>,<undefined>,<undefined>,<undefined>,<undefined>,<undefined>,<undefined>,<undefined>,<undefined>,<undefined>
C69,control,F01,famous,C,152,1719,TRUE,s044,0.090758,-0.3378,-0.35712,0.1374,-0.41385,-0.080233,0.29455,-0.16638,-0.11721,-0.2815,0.13235,-0.62731,0.0025231,-0.14706,-0.19327,-0.036548,-0.013246,0.029412,0.14245,-0.46468,-0.3693,0.16933,0.0004329,-0.073529,0.032368,0.014706,0.17647,<undefined>,-0.4042,0.036981,0.17647,-0.13444,0.014706,0.16176,0.26723,0.29412,0.19161,0.41176,<undefined>,-0.31553,0.073529,-0.29116,<undefined>,<undefined>,0.21345
C71,control,F01,famous,C,16,1406,TRUE,s045,0.068966,-0.34677,-0.38472,-0.0024506,-0.32759,-0.031525,0.026116,-0.0054088,-0.2926,-0.22118,0.074882,-0.75862,-0.085699,-0.10049,-0.16895,-0.045808,-0.26325,0.0029582,0.052232,-0.34432,-0.37289,-0.042342,-0.077332,0.0202,-0.12314,0,0.28474,<undefined>,-0.44481,0.0059163,0.18966,-0.13201,0.034483,0.19261,-0.12018,0.069473,-0.11376,0.12069,<undefined>,-0.26699,0.13793,-0.30984,<undefined>,0.21345,<undefined>
C01,control,F01,famous,D,72,899,TRUE,s001,<undefined>,0.22727,-0.17327,0.18152,0.4347,0.13636,-0.23585,0.055025,0.19695,0.089811,0.42857,-0.41632,0.23175,0.23175,0.035324,0.083333,<undefined>,-0.088235,-0.060948,-0.32353,0.051724,<undefined>,0.042857,-0.26517,<undefined>,0.18686,-0.12367,<undefined>,-0.1,0.096447,0.045455,0.19324,-0.027703,0.23175,-0.3,0.0045151,-0.40476,0.09375,<undefined>,0.23267,0.1,0.19324,<undefined>,-0.37343,-0.06476
C04,control,F01,famous,D,94,1060,TRUE,s002,0.22727,<undefined>,0.16709,0.030526,-0.022727,0.14416,-0.10377,0.18182,0.13636,0.20455,0.20844,-0.12856,0.034425,0.053253,0.29545,-0.041667,<undefined>,-0.20455,-0.21381,-0.16667,-0.12069,<undefined>,0.16204,-0.15519,<undefined>,-0.02,0.071429,<undefined>,0.045455,-0.048685,0.27273,-0.014929,-0.16667,0.053253,-0.58,-0.35194,-0.70455,0.20581,<undefined>,0.25,0.0034315,-0.068182,<undefined>,-0.20312,0.033333
C05,control,F01,famous,D,142,1370,TRUE,s003,-0.17327,0.16709,<undefined>,0.065857,-0.14098,0.026109,-0.26091,0.15217,0.15217,0.17391,-0.12979,-0.37575,-0.23785,-0.28133,0.11989,-0.12439,<undefined>,-0.35838,-0.41569,0.019608,0.25321,<undefined>,-0.24447,-0.075767,<undefined>,-0.20284,-0.15875,<undefined>,-0.18382,0.051578,0.072677,-0.27014,-0.30518,-0.28133,-0.66912,-0.38384,-0.74968,-0.0071226,<undefined>,0.043478,-0.22627,-0.37947,<undefined>,-0.06116,0.03366
C06,control,F01,famous,D,109,826,TRUE,s004,0.18152,0.030526,0.065857,<undefined>,0.32858,0.36754,-0.17115,-0.028553,-0.17142,-0.0041805,0.2748,-0.62183,0.52383,0.46827,-0.33276,0.34406,<undefined>,-0.058824,0.094772,-0.20084,0.31034,<undefined>,0.0098042,-0.44536,<undefined>,0.12,-0.035504,<undefined>,0.20429,0.65429,-0.022727,0.46994,-0.16407,0.46827,-0.17657,0,-0.25782,0.10938,<undefined>,-0.2983,0.17373,0.35565,<undefined>,-0.19531,-0.066667
C07,control,F01,famous,D,58,649,TRUE,s005,0.4347,-0.022727,-0.14098,0.32858,<undefined>,0.23117,-0.15876,-0.12855,0.018383,-0.095588,0.39286,-0.6959,0.34763,0.34763,-0.11173,-0.020833,<undefined>,0.17647,0.0085786,-0.26302,0.12365,<undefined>,-0.052241,-0.087468,<undefined>,0.063431,-0.064075,<undefined>,0.075,0.20429,0.14026,0.30302,-0.15152,0.34763,-0.16,-0.052632,-0.2381,-0.010263,<undefined>,0.013198,0.22343,0.30302,<undefined>,-0.3058,-0.2146
C08,control,F01,famous,D,43,1095,TRUE,s006,0.13636,0.14416,0.026109,0.36754,0.23117,<undefined>,-0.059563,-0.040886,0.015598,-0.041555,0.17079,-0.43895,0.5,0.54545,-0.10907,0.28156,<undefined>,0.030526,0.1,-0.15518,0.24434,<undefined>,0.14531,-0.38569,<undefined>,0.06,0.014286,<undefined>,0.31818,0.40909,0.16299,0.43182,-0.015152,0.54545,-0.18,-0.068182,-0.25,0.25,<undefined>,-0.16232,0.38686,0.38636,<undefined>,-0.24196,-0.097767
C10,control,F01,famous,D,36,2817,TRUE,s007,-0.23585,-0.10377,-0.26091,-0.17115,-0.15876,-0.059563,<undefined>,-0.16172,-0.2593,-0.31428,-0.14151,-0.47276,-0.009434,0.009434,-0.28894,-0.09864,<undefined>,-0.16981,0.17925,-0.011838,-0.072234,<undefined>,0.24528,-0.19488,<undefined>,0.018868,0.28949,<undefined>,-0.12264,-0.097299,-0.097299,0.011053,0.025342,0.009434,-0.09434,-0.20107,-0.15876,0.00027771,<undefined>,-0.30189,0.09434,0.037736,<undefined>,-0.076325,0.052581
C11,control,F01,famous,D,70,1313,TRUE,s008,0.055025,0.18182,0.15217,-0.028553,-0.12855,-0.040886,-0.16172,<undefined>,0.1,0.475,-0.024264,-0.2364,-0.33995,-0.31924,-0.025,0.30596,<undefined>,-0.425,-0.46569,-0.20588,0.037441,<undefined>,-0.20161,-0.05,<undefined>,0.094315,-0.27346,<undefined>,-0.22071,-0.16569,0,-0.39424,-0.32769,-0.31924,-0.62,-0.47855,-0.88095,-0.125,<undefined>,0.275,-0.10569,-0.43211,<undefined>,-0.078125,-0.055556
C12,control,F01,famous,D,58,679,TRUE,s009,0.19695,0.13636,0.15217,-0.17142,0.018383,0.015598,-0.2593,0.1,<undefined>,0.32143,0.054097,-0.32038,-0.29521,-0.29521,0.44118,-0.24285,<undefined>,-0.092416,-0.31046,-0.16667,-0.12906,<undefined>,-0.12857,-0.125,<undefined>,-0.26284,-0.1355,<undefined>,-0.091421,-0.062132,0.18962,-0.30598,-0.10821,-0.29521,-0.54971,-0.28947,-0.64286,-0.125,<undefined>,0.53571,-0.10971,-0.20072,<undefined>,-0.29688,-0.1
C14,control,F01,famous,D,123,619,TRUE,s010,0.089811,0.20455,0.17391,-0.0041805,-0.095588,-0.041555,-0.31428,0.475,0.32143,<undefined>,0.14391,-0.15914,-0.346,-0.346,0.11765,-0.089869,<undefined>,-0.31848,-0.4076,-0.19608,-0.20098,<undefined>,-0.2,-0.09375,<undefined>,-0.12,-0.21877,<undefined>,-0.125,-0.078553,0.022727,-0.3541,-0.32813,-0.346,-0.49657,-0.47368,-0.71429,-0.17188,<undefined>,0.61538,-0.14627,-0.3541,<undefined>,-0.22656,-0.066667
C15,control,F01,famous,D,100,934,TRUE,s011,0.42857,0.20844,-0.12979,0.2748,0.39286,0.17079,-0.14151,-0.024264,0.054097,0.14391,<undefined>,-0.58876,0.31985,0.31985,0.010958,0.066074,<undefined>,0.088235,-0.008088,-0.26471,-0.011325,<undefined>,-0.0093836,-0.15533,<undefined>,0.14686,0.014286,<undefined>,0.05,0.16716,0.23507,0.2767,-0.075758,0.31985,-0.22,-0.026316,-0.30952,0.0625,<undefined>,0.19083,0.26,0.2767,<undefined>,-0.2721,-0.055556
C18,control,F01,famous,D,69,859,TRUE,s012,-0.41632,-0.12856,-0.37575,-0.62183,-0.6959,-0.43895,-0.47276,-0.2364,-0.32038,-0.15914,-0.58876,<undefined>,-0.77778,-0.77778,-0.23861,-0.33211,<undefined>,-0.79412,-0.66667,-0.46021,-0.43002,<undefined>,-0.38571,-0.51961,<undefined>,-0.42284,-0.47549,<undefined>,-0.25,-0.63284,-0.4688,-0.76316,-0.5251,-0.77778,-0.7,-0.76316,-0.7381,-0.25758,<undefined>,-0.11222,-0.60627,-0.76316,<undefined>,-0.34865,-0.36443
C20,control,F01,famous,D,44,1088,TRUE,s013,0.23175,0.034425,-0.23785,0.52383,0.34763,0.5,-0.009434,-0.33995,-0.29521,-0.346,0.31985,-0.77778,<undefined>,0.94444,-0.34994,0.053003,<undefined>,0.19444,0.33333,-0.26471,0.16701,<undefined>,0.24286,-0.45234,<undefined>,0.28343,0.15714,<undefined>,0.22929,0.50858,0.050023,0.86842,0.0025996,0.94444,0.043431,0.23684,0.0040851,0.1875,<undefined>,-0.3095,0.46,0.71053,<undefined>,-0.26562,-0.13143
C21,control,F01,famous,D,150,1052,TRUE,s014,0.23175,0.053253,-0.28133,0.46827,0.34763,0.54545,0.009434,-0.31924,-0.29521,-0.346,0.31985,-0.77778,0.94444,<undefined>,-0.34994,0.070262,<undefined>,0.19444,0.3,-0.26471,0.1872,<undefined>,0.27143,-0.45234,<undefined>,0.3,0.18571,<undefined>,0.25,0.45858,0.068851,0.81579,0.015152,1,0.06,0.21504,0.02381,0.1875,<undefined>,-0.3095,0.5,0.76316,<undefined>,-0.25647,-0.12222
C22,control,F01,famous,D,105,811,TRUE,s015,0.035324,0.29545,0.11989,-0.33276,-0.11173,-0.10907,-0.28894,-0.025,0.44118,0.11765,0.010958,-0.23861,-0.34994,-0.34994,<undefined>,-0.38154,<undefined>,-0.34285,-0.44902,-0.066945,-0.016734,<undefined>,-0.21877,-0.029412,<undefined>,-0.30225,-0.0069326,<undefined>,-0.18713,-0.35784,0.30325,-0.38867,-0.25193,-0.34994,-0.66627,-0.42479,-0.80952,-0.046875,<undefined>,0.29412,-0.14912,-0.4195,<undefined>,-0.14844,0.044444
C25,control,F01,famous,D,10,1238,TRUE,s016,0.083333,-0.041667,-0.12439,0.34406,-0.020833,0.28156,-0.09864,0.30596,-0.24285,-0.089869,0.066074,-0.33211,0.053003,0.070262,-0.38154,<undefined>,<undefined>,-0.3125,-0.19665,-0.1944,0.11232,<undefined>,-0.035083,-0.41963,<undefined>,0.45029,-0.24489,<undefined>,-0.041667,0.20537,-0.041667,0.0077621,-0.19697,0.070262,-0.38,-0.27083,-0.52083,0,<undefined>,-0.27379,-0.11941,-0.023794,<undefined>,-0.084597,0.033333
C28,control,F01,famous,D,110,2253,FALSE,s017,<undefined>,<undefined>,<undefined>,<undefined>,<undefined>,<undefined>,<undefined>,<undefined>,<undefined>,<undefined>,<undefined>,<undefined>,<undefined>,<undefined>,<undefined>,<undefined>,<undefined>,<undefined>,<undefined>,<undefined>,<undefined>,<undefined>,<undefined>,<undefined>,<undefined>,<undefined>,<undefined>,<undefined>,<undefined>,<undefined>,<undefined>,<undefined>,<undefined>,<undefined>,<undefined>,<undefined>,<undefined>,<undefined>,<undefined>,<undefined>,<undefined>,<undefined>,<undefined>,<undefined>,<undefined>
C29,control,F01,famous,D,64,1138,TRUE,s018,-0.088235,-0.20455,-0.35838,-0.058824,0.17647,0.030526,-0.16981,-0.425,-0.092416,-0.31848,0.088235,-0.79412,0.19444,0.19444,-0.34285,-0.3125,<undefined>,<undefined>,0.083333,-0.17647,-0.068966,<undefined>,0.085714,-0.34789,<undefined>,-0.10627,0.057143,<undefined>,-0.19926,0.075,0.075981,0.15789,-0.090909,0.19444,-0.11598,0.02709,-0.042833,-0.14821,<undefined>,-0.20084,0.08,0.36842,<undefined>,-0.25892,-0.2
C31,control,F01,famous,D,149,1470,TRUE,s019,-0.060948,-0.21381,-0.41569,0.094772,0.0085786,0.1,0.17925,-0.46569,-0.31046,-0.4076,-0.008088,-0.66667,0.33333,0.3,-0.44902,-0.19665,<undefined>,0.083333,<undefined>,-0.12687,-0.077614,<undefined>,0.3098,-0.2714,<undefined>,0.047631,0.32857,<undefined>,-0.033333,0.21144,-0.17949,0.30286,0.42684,0.3,0.27525,0.16953,0.18333,-0.025888,<undefined>,-0.3857,0.30858,0.45,<undefined>,-0.20424,-0.17587
C32,control,F01,famous,D,143,2536,TRUE,s020,-0.32353,-0.16667,0.019608,-0.20084,-0.26302,-0.15518,-0.011838,-0.20588,-0.16667,-0.19608,-0.26471,-0.46021,-0.26471,-0.26471,-0.066945,-0.1944,<undefined>,-0.17647,-0.12687,<undefined>,0.073674,<undefined>,-0.15153,-0.20588,<undefined>,-0.22184,0.21093,<undefined>,-0.31204,-0.18291,-0.10448,-0.29412,-0.13192,-0.26471,-0.23669,-0.18459,-0.2042,-0.076749,<undefined>,-0.29412,-0.15826,-0.17647,<undefined>,0.14197,0.23251
C33,control,F01,famous,D,106,1429,TRUE,s021,0.051724,-0.12069,0.25321,0.31034,0.12365,0.24434,-0.072234,0.037441,-0.12906,-0.20098,-0.011325,-0.43002,0.16701,0.1872,-0.016734,0.11232,<undefined>,-0.068966,-0.077614,0.073674,<undefined>,<undefined>,-0.059173,0.017241,<undefined>,0.066515,0.085714,<undefined>,-0.086207,0.25862,0.12069,0.12956,-0.16407,0.1872,-0.31034,-0.17241,-0.34483,0.17724,<undefined>,-0.13793,0.28769,0.10936,<undefined>,0.025008,-0.055228
C34,control,F01,famous,D,120,1284,FALSE,s022,<undefined>,<undefined>,<undefined>,<undefined>,<undefined>,<undefined>,<undefined>,<undefined>,<undefined>,<undefined>,<undefined>,<undefined>,<undefined>,<undefined>,<undefined>,<undefined>,<undefined>,<undefined>,<undefined>,<undefined>,<undefined>,<undefined>,<undefined>,<undefined>,<undefined>,<undefined>,<undefined>,<undefined>,<undefined>,<undefined>,<undefined>,<undefined>,<undefined>,<undefined>,<undefined>,<undefined>,<undefined>,<undefined>,<undefined>,<undefined>,<undefined>,<undefined>,<undefined>,<undefined>,<undefined>
C37,control,F01,famous,D,48,1719,TRUE,s023,0.042857,0.16204,-0.24447,0.0098042,-0.052241,0.14531,0.24528,-0.20161,-0.12857,-0.2,-0.0093836,-0.38571,0.24286,0.27143,-0.21877,-0.035083,<undefined>,0.085714,0.3098,-0.15153,-0.059173,<undefined>,<undefined>,-0.44979,<undefined>,0.18123,0.30735,<undefined>,-0.042857,0.12164,0.028992,0.21674,0.30245,0.27143,-0.16653,-0.085714,-0.2,0.41429,<undefined>,-0.17143,0.13592,0.31429,<undefined>,-0.27187,0.091122
C39,control,F01,famous,D,135,904,TRUE,s024,-0.26517,-0.15519,-0.075767,-0.44536,-0.087468,-0.38569,-0.19488,-0.05,-0.125,-0.09375,-0.15533,-0.51961,-0.45234,-0.45234,-0.029412,-0.41963,<undefined>,-0.34789,-0.2714,-0.20588,0.017241,<undefined>,-0.44979,<undefined>,<undefined>,-0.35255,-0.18571,<undefined>,-0.05,-0.40355,0,-0.34959,-0.34544,-0.45234,-0.26284,-0.29321,-0.30135,-0.25,<undefined>,-0.03125,-0.062843,-0.45485,<undefined>,-0.17188,-0.25556
C40,control,F01,famous,D,59,1689,FALSE,s025,<undefined>,<undefined>,<undefined>,<undefined>,<undefined>,<undefined>,<undefined>,<undefined>,<undefined>,<undefined>,<undefined>,<undefined>,<undefined>,<undefined>,<undefined>,<undefined>,<undefined>,<undefined>,<undefined>,<undefined>,<undefined>,<undefined>,<undefined>,<undefined>,<undefined>,<undefined>,<undefined>,<undefined>,<undefined>,<undefined>,<undefined>,<undefined>,<undefined>,<undefined>,<undefined>,<undefined>,<undefined>,<undefined>,<undefined>,<undefined>,<undefined>,<undefined>,<undefined>,<undefined>,<undefined>
C41,control,F01,famous,D,2,1481,TRUE,s026,0.18686,-0.02,-0.20284,0.12,0.063431,0.06,0.018868,0.094315,-0.26284,-0.12,0.14686,-0.42284,0.28343,0.3,-0.30225,0.45029,<undefined>,-0.10627,0.047631,-0.22184,0.066515,<undefined>,0.18123,-0.35255,<undefined>,<undefined>,-0.030602,<undefined>,0.073726,0.097157,0.066863,0.22343,-0.0021536,0.3,-0.2,-0.11314,-0.32284,0.13082,<undefined>,-0.20284,0.08402,0.25373,<undefined>,-0.17969,0.12794
C42,control,F01,famous,D,150,3054,TRUE,s027,-0.12367,0.071429,-0.15875,-0.035504,-0.064075,0.014286,0.28949,-0.27346,-0.1355,-0.21877,0.014286,-0.47549,0.15714,0.18571,-0.0069326,-0.24489,<undefined>,0.057143,0.32857,0.21093,0.085714,<undefined>,0.30735,-0.18571,<undefined>,-0.030602,<undefined>,<undefined>,-0.042857,0.059594,0.14328,0.11429,-0.028571,0.18571,-0.11429,-0.057143,-0.085714,0.057563,<undefined>,-0.2,0.28571,0.31429,<undefined>,-0.085938,0.22222
C43,control,F01,famous,D,134,2098,FALSE,s028,<undefined>,<undefined>,<undefined>,<undefined>,<undefined>,<undefined>,<undefined>,<undefined>,<undefined>,<undefined>,<undefined>,<undefined>,<undefined>,<undefined>,<undefined>,<undefined>,<undefined>,<undefined>,<undefined>,<undefined>,<undefined>,<undefined>,<undefined>,<undefined>,<undefined>,<undefined>,<undefined>,<undefined>,<undefined>,<undefined>,<undefined>,<undefined>,<undefined>,<undefined>,<undefined>,<undefined>,<undefined>,<undefined>,<undefined>,<undefined>,<undefined>,<undefined>,<undefined>,<undefined>,<undefined>
C46,control,F01,famous,D,134,1029,TRUE,s029,-0.1,0.045455,-0.18382,0.20429,0.075,0.31818,-0.12264,-0.22071,-0.091421,-0.125,0.05,-0.25,0.22929,0.25,-0.18713,-0.041667,<undefined>,-0.19926,-0.033333,-0.31204,-0.086207,<undefined>,-0.042857,-0.05,<undefined>,0.073726,-0.042857,<undefined>,<undefined>,0.10858,-0.029857,0.35429,-0.16667,0.25,-0.093137,-0.025,-0.21429,0.1875,<undefined>,0.025,0.14,0.075,<undefined>,-0.26562,-0.14444
C48,control,F01,famous,D,144,1102,TRUE,s030,0.096447,-0.048685,0.051578,0.65429,0.20429,0.40909,-0.097299,-0.16569,-0.062132,-0.078553,0.16716,-0.63284,0.50858,0.45858,-0.35784,0.20537,<undefined>,0.075,0.21144,-0.18291,0.25862,<undefined>,0.12164,-0.40355,<undefined>,0.097157,0.059594,<undefined>,0.10858,<undefined>,0.0077988,0.47145,-0.052807,0.45858,-0.14284,0.125,-0.17822,0.099112,<undefined>,-0.32855,0.18,0.50429,<undefined>,-0.1875,-0.073965
C49,control,F01,famous,D,9,1138,TRUE,s031,0.045455,0.27273,0.072677,-0.022727,0.14026,0.16299,-0.097299,0,0.18962,0.022727,0.23507,-0.4688,0.050023,0.068851,0.30325,-0.041667,<undefined>,0.075981,-0.17949,-0.10448,0.12069,<undefined>,0.028992,0,<undefined>,0.066863,0.14328,<undefined>,-0.029857,0.0077988,<undefined>,0.00066903,-0.042409,0.068851,-0.34,-0.38636,-0.53376,0.018306,<undefined>,0.022727,0.23373,-0.0025613,<undefined>,-0.1875,0.0019064
C50,control,F01,famous,D,114,1062,TRUE,s032,0.19324,-0.014929,-0.27014,0.46994,0.30302,0.43182,0.011053,-0.39424,-0.30598,-0.3541,0.2767,-0.76316,0.86842,0.81579,-0.38867,0.0077621,<undefined>,0.15789,0.30286,-0.29412,0.12956,<undefined>,0.21674,-0.34959,<undefined>,0.22343,0.11429,<undefined>,0.35429,0.47145,0.00066903,<undefined>,0.060606,0.81579,0.14343,0.21053,0.12313,0.14062,<undefined>,-0.31953,0.4,0.63158,<undefined>,-0.28906,-0.16476
C51,control,F01,famous,D,29,1681,TRUE,s033,-0.027703,-0.16667,-0.30518,-0.16407,-0.15152,-0.015152,0.025342,-0.32769,-0.10821,-0.32813,-0.075758,-0.5251,0.0025996,0.015152,-0.25193,-0.19697,<undefined>,-0.090909,0.42684,-0.13192,-0.16407,<undefined>,0.30245,-0.34544,<undefined>,-0.0021536,-0.028571,<undefined>,-0.16667,-0.052807,-0.042409,0.060606,<undefined>,0.015152,0.33853,0.18702,0.24242,-0.13116,<undefined>,-0.30518,0.090909,0.15152,<undefined>,-0.28749,-0.2
C54,control,F01,famous,D,42,1037,TRUE,s034,0.23175,0.053253,-0.28133,0.46827,0.34763,0.54545,0.009434,-0.31924,-0.29521,-0.346,0.31985,-0.77778,0.94444,1,-0.34994,0.070262,<undefined>,0.19444,0.3,-0.26471,0.1872,<undefined>,0.27143,-0.45234,<undefined>,0.3,0.18571,<undefined>,0.25,0.45858,0.068851,0.81579,0.015152,<undefined>,0.06,0.21504,0.02381,0.1875,<undefined>,-0.3095,0.5,0.76316,<undefined>,-0.25647,-0.12222
C55,control,F01,famous,D,8,1532,TRUE,s035,-0.3,-0.58,-0.66912,-0.17657,-0.16,-0.18,-0.09434,-0.62,-0.54971,-0.49657,-0.22,-0.7,0.043431,0.06,-0.66627,-0.38,<undefined>,-0.11598,0.27525,-0.23669,-0.31034,<undefined>,-0.16653,-0.26284,<undefined>,-0.2,-0.11429,<undefined>,-0.093137,-0.14284,-0.34,0.14343,0.33853,0.06,<undefined>,0.31029,0.64,-0.32812,<undefined>,-0.49657,0.18343,0,<undefined>,-0.25892,-0.4
C56,control,F01,famous,D,79,923,TRUE,s036,0.0045151,-0.35194,-0.38384,0,-0.052632,-0.068182,-0.20107,-0.47855,-0.28947,-0.47368,-0.026316,-0.76316,0.23684,0.21504,-0.42479,-0.27083,<undefined>,0.02709,0.16953,-0.18459,-0.17241,<undefined>,-0.085714,-0.29321,<undefined>,-0.11314,-0.057143,<undefined>,-0.025,0.125,-0.38636,0.21053,0.18702,0.21504,0.31029,<undefined>,0.32178,-0.015625,<undefined>,-0.41576,0.20686,0.052632,<undefined>,-0.27187,-0.3165
C57,control,F01,famous,D,132,1111,TRUE,s037,-0.40476,-0.70455,-0.74968,-0.25782,-0.2381,-0.25,-0.15876,-0.88095,-0.64286,-0.71429,-0.30952,-0.7381,0.0040851,0.02381,-0.80952,-0.52083,<undefined>,-0.042833,0.18333,-0.2042,-0.34483,<undefined>,-0.2,-0.30135,<undefined>,-0.32284,-0.085714,<undefined>,-0.21429,-0.17822,-0.53376,0.12313,0.24242,0.02381,0.64,0.32178,<undefined>,-0.35938,<undefined>,-0.66667,0.08,0.047619,<undefined>,-0.28638,-0.37015
C58,control,F01,famous,D,85,1914,TRUE,s038,0.09375,0.20581,-0.0071226,0.10938,-0.010263,0.25,0.00027771,-0.125,-0.125,-0.17188,0.0625,-0.25758,0.1875,0.1875,-0.046875,0,<undefined>,-0.14821,-0.025888,-0.076749,0.17724,<undefined>,0.41429,-0.25,<undefined>,0.13082,0.057563,<undefined>,0.1875,0.099112,0.018306,0.14062,-0.13116,0.1875,-0.32812,-0.015625,-0.35938,<undefined>,<undefined>,-0.14062,0.15893,0.11474,<undefined>,-0.20914,0.053976
C60,control,F01,famous,D,82,1357,FALSE,s039,<undefined>,<undefined>,<undefined>,<undefined>,<undefined>,<undefined>,<undefined>,<undefined>,<undefined>,<undefined>,<undefined>,<undefined>,<undefined>,<undefined>,<undefined>,<undefined>,<undefined>,<undefined>,<undefined>,<undefined>,<undefined>,<undefined>,<undefined>,<undefined>,<undefined>,<undefined>,<undefined>,<undefined>,<undefined>,<undefined>,<undefined>,<undefined>,<undefined>,<undefined>,<undefined>,<undefined>,<undefined>,<undefined>,<undefined>,<undefined>,<undefined>,<undefined>,<undefined>,<undefined>,<undefined>
C61,control,F01,famous,D,150,707,TRUE,s040,0.23267,0.25,0.043478,-0.2983,0.013198,-0.16232,-0.30189,0.275,0.53571,0.61538,0.19083,-0.11222,-0.3095,-0.3095,0.29412,-0.27379,<undefined>,-0.20084,-0.3857,-0.29412,-0.13793,<undefined>,-0.17143,-0.03125,<undefined>,-0.20284,-0.2,<undefined>,0.025,-0.32855,0.022727,-0.31953,-0.30518,-0.3095,-0.49657,-0.41576,-0.66667,-0.14062,<undefined>,<undefined>,-0.12,-0.31953,<undefined>,-0.30469,-0.13333
C63,control,F01,famous,D,6,1408,TRUE,s041,0.1,0.0034315,-0.22627,0.17373,0.22343,0.38686,0.09434,-0.10569,-0.10971,-0.14627,0.26,-0.60627,0.46,0.5,-0.14912,-0.11941,<undefined>,0.08,0.30858,-0.15826,0.28769,<undefined>,0.13592,-0.062843,<undefined>,0.08402,0.28571,<undefined>,0.14,0.18,0.23373,0.4,0.090909,0.5,0.18343,0.20686,0.08,0.15893,<undefined>,-0.12,<undefined>,0.36,<undefined>,-0.10915,-0.064433
C64,control,F01,famous,D,39,914,TRUE,s042,0.19324,-0.068182,-0.37947,0.35565,0.30302,0.38636,0.037736,-0.43211,-0.20072,-0.3541,0.2767,-0.76316,0.71053,0.76316,-0.4195,-0.023794,<undefined>,0.36842,0.45,-0.17647,0.10936,<undefined>,0.31429,-0.45485,<undefined>,0.25373,0.31429,<undefined>,0.075,0.50429,-0.0025613,0.63158,0.15152,0.76316,0,0.052632,0.047619,0.11474,<undefined>,-0.31953,0.36,<undefined>,<undefined>,-0.19263,-0.088889
C66,control,F01,famous,D,140,1693,FALSE,s043,<undefined>,<undefined>,<undefined>,<undefined>,<undefined>,<undefined>,<undefined>,<undefined>,<undefined>,<undefined>,<undefined>,<undefined>,<undefined>,<undefined>,<undefined>,<undefined>,<undefined>,<undefined>,<undefined>,<undefined>,<undefined>,<undefined>,<undefined>,<undefined>,<undefined>,<undefined>,<undefined>,<undefined>,<undefined>,<undefined>,<undefined>,<undefined>,<undefined>,<undefined>,<undefined>,<undefined>,<undefined>,<undefined>,<undefined>,<undefined>,<undefined>,<undefined>,<undefined>,<undefined>,<undefined>
C69,control,F01,famous,D,10,3372,TRUE,s044,-0.37343,-0.20312,-0.06116,-0.19531,-0.3058,-0.24196,-0.076325,-0.078125,-0.29688,-0.22656,-0.2721,-0.34865,-0.26562,-0.25647,-0.14844,-0.084597,<undefined>,-0.25892,-0.20424,0.14197,0.025008,<undefined>,-0.27187,-0.17188,<undefined>,-0.17969,-0.085938,<undefined>,-0.26562,-0.1875,-0.1875,-0.28906,-0.28749,-0.25647,-0.25892,-0.27187,-0.28638,-0.20914,<undefined>,-0.30469,-0.10915,-0.19263,<undefined>,<undefined>,0.066521
C71,control,F01,famous,D,154,2450,TRUE,s045,-0.06476,0.033333,0.03366,-0.066667,-0.2146,-0.097767,0.052581,-0.055556,-0.1,-0.066667,-0.055556,-0.36443,-0.13143,-0.12222,0.044444,0.033333,<undefined>,-0.2,-0.17587,0.23251,-0.055228,<undefined>,0.091122,-0.25556,<undefined>,0.12794,0.22222,<undefined>,-0.14444,-0.073965,0.0019064,-0.16476,-0.2,-0.12222,-0.4,-0.3165,-0.37015,0.053976,<undefined>,-0.13333,-0.064433,-0.088889,<undefined>,0.066521,<undefined>
C01,control,F02,famous,A,126,949,TRUE,s001,<undefined>,0.23274,0.40625,-0.23836,0.25,-0.44194,-0.31876,-0.078542,-0.1875,0.38235,-0.31158,-0.19638,-0.41125,-0.36391,0.55556,-0.22252,<undefined>,-0.24464,-0.34123,0.625,0.625,-0.41427,-0.19169,-0.39553,-0.32609,-0.06158,-0.33189,<undefined>,0.041973,-0.33211,-0.024968,-0.18658,-0.47319,-0.43526,-0.85892,-0.21006,<undefined>,0.041973,-0.1875,0.53125,0.041973,-0.47535,-0.064282,0.125,-0.20072
C04,control,F02,famous,A,26,1164,TRUE,s002,0.23274,<undefined>,0.017872,-0.17616,0,-0.25296,-0.21068,0.018485,-0.22559,-0.055351,-0.16605,-0.44281,-0.2839,-0.15472,0.34763,-0.23213,<undefined>,-0.10417,-0.21426,0.1393,0.125,-0.28791,-0.085681,-0.32261,-0.39583,-0.097018,-0.14461,<undefined>,-0.2839,-0.25,0.13572,-0.065461,-0.32976,-0.18035,-0.60417,-0.20476,-0.72917,-0.013684,-0.37796,0.0625,0.020833,-0.33629,-0.125,-0.041667,-0.075571
C05,control,F02,famous,A,5,768,TRUE,s003,0.40625,0.017872,<undefined>,-0.14281,0.26923,-0.54587,-0.4413,-0.29089,-0.2747,0.41176,-0.47247,-0.16513,-0.5338,-0.53058,0.39365,-0.30147,<undefined>,-0.35822,-0.53567,0.60714,0.5,-0.50506,-0.3759,-0.46701,-0.43478,-0.29996,-0.53777,<undefined>,0.2253,-0.5112,-0.16095,-0.46701,-0.63952,-0.41595,-0.8,-0.38149,<undefined>,-0.037329,-0.17857,0.36595,-0.12745,-0.53567,-0.068182,0.078585,-0.39396
C06,control,F02,famous,A,80,927,TRUE,s004,-0.23836,-0.17616,-0.14281,<undefined>,-0.26569,0.43333,0.38648,0.32208,0.072386,-0.27811,0.6,-0.55714,0.29399,0.21837,-0.12377,0.45188,<undefined>,0.13333,0.3381,-0.17614,-0.34853,-0.16476,0.45188,0.022876,-0.21739,0.33333,0.3874,<undefined>,-0.31046,0.033333,0.26667,0.46667,0.2781,0.11765,-0.26667,0.23529,-0.68421,0.22288,-0.13235,-0.42565,0.2781,0.25,-0.11364,-0.32675,0.29399
C07,control,F02,famous,A,118,579,TRUE,s005,0.25,0,0.26923,-0.26569,<undefined>,-0.33263,-0.31501,-0.18182,0.028595,0.029412,-0.21426,-0.28033,-0.31501,-0.33263,0.16667,-0.24961,<undefined>,-0.36662,-0.30474,0.21429,0.25,-0.39967,-0.24961,-0.45494,-0.40121,-0.076184,-0.29325,<undefined>,-0.061887,-0.1306,-0.18284,-0.2615,-0.5,-0.17142,-0.78284,-0.20588,<undefined>,0.055964,0,0.26923,-0.043928,-0.36983,-0.13636,-0.0625,-0.29321
C08,control,F02,famous,A,15,686,TRUE,s006,-0.44194,-0.25296,-0.54587,0.43333,-0.33263,<undefined>,0.39474,0.27273,0.012255,-0.46972,0.60714,-0.9375,0.5,0.30952,-0.46187,0.18421,<undefined>,0.17857,0.44444,-0.58158,-0.42139,-0.077778,0.39474,0.1194,0.1087,0.32143,0.5,<undefined>,-0.76733,0.14286,0.23333,0.50613,0.57756,0.5,0.23333,0.20588,-0.44737,0.23267,-0.37447,-0.54587,0.25,0.5,0.090909,-0.082107,0.34211
C10,control,F02,famous,A,140,1059,TRUE,s007,-0.31876,-0.21068,-0.4413,0.38648,-0.31501,0.39474,<undefined>,0.65909,-0.12255,-0.32327,0.36842,-0.82856,0.52632,0.65511,-0.3225,0.39551,<undefined>,0,0.65789,-0.46762,-0.38042,0.039052,0.84211,0.061662,-0.086957,0.15789,0.76767,<undefined>,-0.60449,0.078947,0.22859,0.34662,0.26316,0.26316,-0.10526,0.26316,-0.78947,0.070692,-0.28418,-0.21801,0.14512,0.5,-0.014929,-0.095458,0.64061
C11,control,F02,famous,A,101,1064,TRUE,s008,-0.078542,0.018485,-0.29089,0.32208,-0.18182,0.27273,0.65909,<undefined>,-0.17402,-0.15775,0.25,-0.60974,0.38636,0.65909,-0.18828,0.40976,<undefined>,-0.068182,0.5,-0.28699,-0.15842,0.090795,0.79545,-0.10584,-0.15217,0.25,0.61364,<undefined>,-0.37856,0,0.12923,0.23117,0.068182,0.20455,-0.15909,0.38636,-0.75,-0.0071297,-0.086341,-0.29089,0.057153,0.32598,-0.08311,-0.18505,0.42859
C12,control,F02,famous,A,72,1620,TRUE,s009,-0.1875,-0.22559,-0.2747,0.072386,0.028595,0.012255,-0.12255,-0.17402,<undefined>,-0.1126,0.15196,-0.42678,-0.12255,-0.1585,-0.44839,0.057147,<undefined>,0.067157,-0.10158,-0.41632,-0.31904,-0.31841,-0.12255,-0.26923,-0.33664,0.045455,-0.078143,<undefined>,-0.39349,0.21429,-0.021895,0.051659,-0.11538,-0.14706,-0.56667,-0.20588,-0.55263,0.15196,0.071429,-0.34615,0.19231,-0.10158,-0.018828,-0.33839,-0.069917
C14,control,F02,famous,A,36,812,TRUE,s010,0.38235,-0.055351,0.41176,-0.27811,0.029412,-0.46972,-0.32327,-0.15775,-0.1126,<undefined>,-0.34703,-0.3218,-0.45936,-0.35166,0.060321,0.13235,<undefined>,-0.25966,-0.39202,0.14706,0.38235,-0.42157,-0.17815,-0.30839,-0.40931,-0.11173,-0.31675,<undefined>,-0.097462,-0.30334,-0.077277,-0.20502,-0.38149,-0.53777,-0.76471,-0.26384,<undefined>,-0.014273,0.26471,0.29412,-0.014273,-0.48012,0.0038994,0.32353,-0.19621
C15,control,F02,famous,A,153,589,TRUE,s011,-0.31158,-0.16605,-0.47247,0.6,-0.21426,0.60714,0.36842,0.25,0.15196,-0.34703,<undefined>,-0.84375,0.36842,0.28571,-0.346,0.31579,<undefined>,0.36364,0.41667,-0.47444,-0.31781,-0.13333,0.36842,0.090121,-0.13043,0.63636,0.47059,<undefined>,-0.84024,0.17857,0.4,0.69231,0.38462,0.23529,-0.13333,0.17647,-0.57895,0.48574,-0.22549,-0.42741,0.42968,0.36111,-0.022727,-0.31158,0.36842
C18,control,F02,famous,A,55,949,TRUE,s012,-0.19638,-0.44281,-0.16513,-0.55714,-0.28033,-0.9375,-0.82856,-0.60974,-0.42678,-0.3218,-0.84375,<undefined>,<undefined>,<undefined>,-0.18804,-0.57817,<undefined>,<undefined>,-0.94444,-0.071383,-0.358,<undefined>,-0.76316,-0.7598,<undefined>,-0.59375,-0.97059,<undefined>,0.26608,-0.6875,-0.8223,<undefined>,-0.83303,<undefined>,<undefined>,-0.67647,<undefined>,-0.6973,-0.24372,-0.4303,-0.60892,<undefined>,-0.65062,-0.59727,-0.80676
C20,control,F02,famous,A,87,940,TRUE,s013,-0.41125,-0.2839,-0.5338,0.29399,-0.31501,0.5,0.52632,0.38636,-0.12255,-0.45936,0.36842,-0.92105,<undefined>,0.61905,-0.47665,0.21053,<undefined>,0,0.5,-0.56011,-0.38042,0.13333,0.52632,-0.087203,0.11989,0.15789,0.63158,<undefined>,-0.69698,0.18421,0.16692,0.34662,0.32482,0.57895,0.21053,0.052632,-0.47368,0.070692,-0.31501,-0.4413,0.14512,0.76316,0.0038994,-0.055597,0.36842
C21,control,F02,famous,A,38,1178,TRUE,s014,-0.36391,-0.15472,-0.53058,0.21837,-0.33263,0.30952,0.65511,0.65909,-0.1585,-0.35166,0.28571,-0.88095,0.61905,<undefined>,-0.42308,0.31022,<undefined>,-0.047619,0.64286,-0.55439,-0.39181,0.2,0.71429,-0.12652,0.13043,0.095238,0.71429,<undefined>,-0.67822,0.071429,0.1592,0.26599,0.10341,0.28571,-0.095238,0.19048,-0.71429,0.01634,-0.30474,-0.44689,0.083684,0.45238,0.1182,-0.2884,0.53198
C22,control,F02,famous,A,31,863,TRUE,s015,0.55556,0.34763,0.39365,-0.12377,0.16667,-0.46187,-0.3225,-0.18828,-0.44839,0.060321,-0.346,-0.18804,-0.47665,-0.42308,<undefined>,-0.41125,<undefined>,-0.3095,-0.41027,0.5881,0.33333,-0.46411,-0.25709,-0.37459,-0.33664,-0.25395,-0.38249,<undefined>,0.02383,-0.44839,-0.11029,-0.31345,-0.49918,-0.36506,-0.82857,-0.3976,-0.89022,-0.031726,-0.46746,0.34763,-0.031726,-0.57298,-0.18505,0.019064,-0.37139
C25,control,F02,famous,A,112,927,TRUE,s016,-0.22252,-0.23213,-0.30147,0.45188,-0.24961,0.18421,0.39551,0.40976,0.057147,0.13235,0.31579,-0.57817,0.21053,0.31022,-0.41125,<undefined>,<undefined>,0,0.2985,-0.40222,-0.22252,-0.11269,0.55341,-0.074432,-0.34783,0.31579,0.38648,<undefined>,-0.44659,-0.039086,0.070692,0.21053,0.13609,0.039861,-0.27593,0.21053,-0.78947,0.039861,0.3203,-0.34133,0.092493,0.17144,-0.11364,-0.20601,0.29025
C28,control,F02,famous,A,28,2272,FALSE,s017,<undefined>,<undefined>,<undefined>,<undefined>,<undefined>,<undefined>,<undefined>,<undefined>,<undefined>,<undefined>,<undefined>,<undefined>,<undefined>,<undefined>,<undefined>,<undefined>,<undefined>,<undefined>,<undefined>,<undefined>,<undefined>,<undefined>,<undefined>,<undefined>,<undefined>,<undefined>,<undefined>,<undefined>,<undefined>,<undefined>,<undefined>,<undefined>,<undefined>,<undefined>,<undefined>,<undefined>,<undefined>,<undefined>,<undefined>,<undefined>,<undefined>,<undefined>,<undefined>,<undefined>,<undefined>
C29,control,F02,famous,A,124,741,TRUE,s018,-0.24464,-0.10417,-0.35822,0.13333,-0.36662,0.17857,0,-0.068182,0.067157,-0.25966,0.36364,-0.78125,0,-0.047619,-0.3095,0,<undefined>,<undefined>,0.027778,-0.3265,-0.19404,-0.28889,0,-0.15385,0,0.18182,0.058824,<undefined>,-0.63636,-0.011204,0.13333,0.38462,0.13518,0.010093,-0.31046,-0.11765,-0.52632,0.23507,-0.3806,-0.31316,0.23077,0.027778,0.11364,-0.34819,0
C31,control,F02,famous,A,88,1089,TRUE,s019,-0.34123,-0.21426,-0.53567,0.3381,-0.30474,0.44444,0.65789,0.5,-0.10158,-0.39202,0.41667,-0.94444,0.5,0.64286,-0.41027,0.2985,<undefined>,0.027778,<undefined>,-0.56345,-0.37377,0.033333,0.65789,0.1024,0.15217,0.19444,0.80556,<undefined>,-0.70792,0.11111,0.26906,0.39365,0.14842,0.31509,0.083333,0.36111,-0.60526,0.1024,-0.27219,-0.43804,0.18096,0.38889,0.068851,-0.34123,0.5
C32,control,F02,famous,A,148,661,TRUE,s020,0.625,0.1393,0.60714,-0.17614,0.21429,-0.58158,-0.46762,-0.28699,-0.41632,0.14706,-0.47444,-0.071383,-0.56011,-0.55439,0.5881,-0.40222,<undefined>,-0.3265,-0.56345,<undefined>,0.57143,-0.51618,-0.40222,-0.46936,-0.38757,-0.31425,-0.56718,<undefined>,0.27451,-0.54692,-0.11618,-0.38568,-0.62955,-0.44536,<undefined>,-0.4109,<undefined>,-0.070377,-0.5,0.58981,-0.15406,-0.56345,-0.21947,0.083947,-0.35862
C33,control,F02,famous,A,141,729,TRUE,s021,0.625,0.125,0.5,-0.34853,0.25,-0.42139,-0.38042,-0.15842,-0.31904,0.38235,-0.31781,-0.358,-0.38042,-0.39181,0.33333,-0.22252,<undefined>,-0.19404,-0.37377,0.57143,<undefined>,-0.4403,-0.22252,-0.36482,-0.23913,-0.033291,-0.36635,<undefined>,0.035744,-0.34996,0.028595,-0.15271,-0.49227,-0.39071,-0.78284,-0.1756,<undefined>,0.1536,-0.21429,0.65385,0.09672,-0.4198,-0.064282,0.1875,-0.17892
C34,control,F02,famous,A,78,2423,TRUE,s022,-0.41427,-0.28791,-0.50506,-0.16476,-0.39967,-0.077778,0.039052,0.090795,-0.31841,-0.42157,-0.13333,-0.65556,0.13333,0.2,-0.46411,-0.11269,<undefined>,-0.28889,0.033333,-0.51618,-0.4403,<undefined>,0.066667,-0.28508,-0.094281,-0.22222,0.066667,<undefined>,-0.56095,-0.21111,-0.18317,-0.13333,-0.15174,-0.044444,-0.066667,-0.17778,-0.31111,-0.25904,-0.39967,-0.46601,-0.22761,0.033333,-0.19586,-0.31236,-0.0092047
C37,control,F02,famous,A,144,909,TRUE,s023,-0.19169,-0.085681,-0.3759,0.45188,-0.24961,0.39474,0.84211,0.79545,-0.12255,-0.17815,0.36842,-0.76316,0.52632,0.71429,-0.25709,0.55341,<undefined>,0,0.65789,-0.40222,-0.22252,0.066667,<undefined>,-0.043601,-0.086957,0.31579,0.78947,<undefined>,-0.53909,0.078947,0.22859,0.34662,0.15789,0.29399,-0.10526,0.42105,-0.78947,0.070692,-0.12629,-0.3759,0.14512,0.4564,-0.014929,-0.25335,0.57521
C39,control,F02,famous,A,114,778,TRUE,s024,-0.39553,-0.32261,-0.46701,0.022876,-0.45494,0.1194,0.061662,-0.10584,-0.26923,-0.30839,0.090121,-0.7598,-0.087203,-0.12652,-0.37459,-0.074432,<undefined>,-0.15385,0.1024,-0.46936,-0.36482,-0.28508,-0.043601,<undefined>,0.0074597,0,-0.038638,<undefined>,-0.4802,-0.094888,-0.11046,0.04506,0.076923,-0.16638,0.2,0.36303,-0.31579,0.04506,-0.46429,-0.24943,0.04506,-0.041258,-0.0071297,-0.03125,-0.043601
C40,control,F02,famous,A,32,1382,TRUE,s025,-0.32609,-0.39583,-0.43478,-0.21739,-0.40121,0.1087,-0.086957,-0.15217,-0.33664,-0.40931,-0.13043,-0.84783,0.11989,0.13043,-0.33664,-0.34783,<undefined>,0,0.15217,-0.38757,-0.23913,-0.094281,-0.086957,0.0074597,<undefined>,-0.27888,0,<undefined>,-0.6087,-0.19874,-0.14844,0,-0.043478,0,0.28634,0.043478,-0.26087,-0.13043,-0.57204,-0.3149,-0.14098,0.065217,0.32609,-0.15526,-0.13043
C41,control,F02,famous,A,133,716,TRUE,s026,-0.06158,-0.097018,-0.29996,0.33333,-0.076184,0.32143,0.15789,0.25,0.045455,-0.11173,0.63636,-0.59375,0.15789,0.095238,-0.25395,0.31579,<undefined>,0.18182,0.19444,-0.31425,-0.033291,-0.22222,0.31579,0,-0.27888,<undefined>,0.23529,<undefined>,-0.4766,0.060225,0.21144,0.38462,0.27583,0.13783,-0.28284,0.41176,-0.57895,0.27273,0.060225,-0.29996,0.15385,0.17143,-0.20455,-0.20803,0.21053
C42,control,F02,famous,A,62,837,TRUE,s027,-0.33189,-0.14461,-0.53777,0.3874,-0.29325,0.5,0.76767,0.61364,-0.078143,-0.31675,0.47059,-0.97059,0.63158,0.71429,-0.38249,0.38648,<undefined>,0.058824,0.80556,-0.56718,-0.36635,0.066667,0.78947,-0.038638,0,0.23529,<undefined>,<undefined>,-0.72016,0.14706,0.3143,0.44622,0.18656,0.41176,-0.058824,0.35294,-0.73684,0.13783,-0.25879,-0.4344,0.22102,0.52778,0.057153,-0.29743,0.63158
C43,control,F02,famous,A,29,3534,FALSE,s028,<undefined>,<undefined>,<undefined>,<undefined>,<undefined>,<undefined>,<undefined>,<undefined>,<undefined>,<undefined>,<undefined>,<undefined>,<undefined>,<undefined>,<undefined>,<undefined>,<undefined>,<undefined>,<undefined>,<undefined>,<undefined>,<undefined>,<undefined>,<undefined>,<undefined>,<undefined>,<undefined>,<undefined>,<undefined>,<undefined>,<undefined>,<undefined>,<undefined>,<undefined>,<undefined>,<undefined>,<undefined>,<undefined>,<undefined>,<undefined>,<undefined>,<undefined>,<undefined>,<undefined>,<undefined>
C46,control,F02,famous,A,118,720,TRUE,s029,0.041973,-0.2839,0.2253,-0.31046,-0.061887,-0.76733,-0.60449,-0.37856,-0.39349,-0.097462,-0.84024,0.26608,-0.69698,-0.67822,0.02383,-0.44659,<undefined>,-0.63636,-0.70792,0.27451,0.035744,-0.56095,-0.53909,-0.4802,-0.6087,-0.4766,-0.72016,<undefined>,<undefined>,-0.52346,-0.42761,-0.61538,-0.69777,-0.64706,<undefined>,-0.42604,<undefined>,-0.40129,-0.26733,-0.10105,-0.23077,-0.70792,-0.37077,-0.17586,-0.49548
C48,control,F02,famous,A,91,666,TRUE,s030,-0.33211,-0.25,-0.5112,0.033333,-0.1306,0.14286,0.078947,0,0.21429,-0.30334,0.17857,-0.6875,0.18421,0.071429,-0.44839,-0.039086,<undefined>,-0.011204,0.11111,-0.54692,-0.34996,-0.21111,0.078947,-0.094888,-0.19874,0.060225,0.14706,<undefined>,-0.52346,<undefined>,0.1,0.14898,0.32143,-0.029412,0.0057191,-0.14706,-0.55263,0.10714,-0.21429,-0.29692,0.32143,0.38889,-0.13636,-0.077665,0.23684
C49,control,F02,famous,A,131,713,TRUE,s031,-0.024968,0.13572,-0.16095,0.26667,-0.18284,0.23333,0.22859,0.12923,-0.021895,-0.077277,0.4,-0.8223,0.16692,0.1592,-0.11029,0.070692,<undefined>,0.13333,0.26906,-0.11618,0.028595,-0.18317,0.22859,-0.11046,-0.14844,0.21144,0.3143,<undefined>,-0.42761,0.1,<undefined>,0.46667,0,0.26975,-0.34951,-0.014273,-0.68421,0.2,-0.42663,-0.04379,0.37239,0.083333,0.11364,-0.21247,0.37745
C50,control,F02,famous,A,23,623,TRUE,s032,-0.18658,-0.065461,-0.46701,0.46667,-0.2615,0.50613,0.34662,0.23117,0.051659,-0.20502,0.69231,-0.86964,0.34662,0.26599,-0.31345,0.21053,<undefined>,0.38462,0.39365,-0.38568,-0.15271,-0.13333,0.34662,0.04506,0,0.38462,0.44622,<undefined>,-0.61538,0.14898,0.46667,<undefined>,0.28903,0.18656,-0.18856,0.058824,-0.63158,0.28903,-0.33876,-0.2417,0.38462,0.28254,0.15909,-0.36336,0.42105
C51,control,F02,famous,A,150,714,TRUE,s033,-0.47319,-0.32976,-0.63952,0.2781,-0.5,0.57756,0.26316,0.068182,-0.11538,-0.38149,0.38462,-0.83303,0.32482,0.10341,-0.49918,0.13609,<undefined>,0.13518,0.14842,-0.62955,-0.49227,-0.15174,0.15789,0.076923,-0.043478,0.27583,0.18656,<undefined>,-0.69777,0.32143,0,0.28903,<undefined>,0.35294,0.26667,0,-0.42105,0.076923,-0.41019,-0.34502,0,0.47222,0.068182,0.15181,0.21053
C54,control,F02,famous,A,13,807,TRUE,s034,-0.43526,-0.18035,-0.41595,0.11765,-0.17142,0.5,0.26316,0.20455,-0.14706,-0.53777,0.23529,-0.97059,0.57895,0.28571,-0.36506,0.039861,<undefined>,0.010093,0.31509,-0.44536,-0.39071,-0.044444,0.29399,-0.16638,0,0.13783,0.41176,<undefined>,-0.64706,-0.029412,0.26975,0.18656,0.35294,<undefined>,0.058824,-0.058824,-0.47368,0,-0.44954,-0.41595,-0.058824,0.52778,0.022727,-0.019319,0.13609
C55,control,F02,famous,A,150,711,TRUE,s035,-0.85892,-0.60417,-0.8,-0.26667,-0.78284,0.23333,-0.10526,-0.15909,-0.56667,-0.76471,-0.13333,<undefined>,0.21053,-0.095238,-0.82857,-0.27593,<undefined>,-0.31046,0.083333,<undefined>,-0.78284,-0.066667,-0.10526,0.2,0.28634,-0.28284,-0.058824,<undefined>,<undefined>,0.0057191,-0.34951,-0.18856,0.26667,0.058824,<undefined>,0.22102,-0.052632,-0.4,-0.76667,-0.73333,-0.46667,0.36111,-0.052584,-0.15625,0.052632
C56,control,F02,famous,A,1,950,TRUE,s036,-0.21006,-0.20476,-0.38149,0.23529,-0.20588,0.20588,0.26316,0.38636,-0.20588,-0.26384,0.17647,-0.67647,0.052632,0.19048,-0.3976,0.21053,<undefined>,-0.11765,0.36111,-0.4109,-0.1756,-0.17778,0.42105,0.36303,0.043478,0.41176,0.35294,<undefined>,-0.42604,-0.14706,-0.014273,0.058824,0,-0.058824,0.22102,<undefined>,-0.42105,-0.058824,-0.06805,-0.38149,-0.073097,0.014298,-0.025958,-0.088235,0.15789
C57,control,F02,famous,A,124,918,TRUE,s037,<undefined>,-0.72917,<undefined>,-0.68421,-0.81579,-0.44737,-0.78947,-0.75,-0.55263,<undefined>,-0.57895,<undefined>,-0.47368,-0.71429,-0.89022,-0.78947,<undefined>,-0.52632,-0.60526,<undefined>,<undefined>,-0.31111,-0.78947,-0.31579,-0.26087,-0.57895,-0.73684,<undefined>,<undefined>,-0.55263,-0.68421,-0.63158,-0.42105,-0.47368,-0.052632,-0.42105,<undefined>,-0.57895,<undefined>,<undefined>,-0.63158,-0.5,-0.52273,-0.44737,-0.78947
C58,control,F02,famous,A,147,566,TRUE,s038,0.041973,-0.013684,-0.037329,0.22288,0.055964,0.23267,0.070692,-0.0071297,0.15196,-0.014273,0.48574,-0.6973,0.070692,0.01634,-0.031726,0.039861,<undefined>,0.23507,0.1024,-0.070377,0.1536,-0.25904,0.070692,0.04506,-0.13043,0.27273,0.13783,<undefined>,-0.40129,0.10714,0.2,0.28903,0.076923,0,-0.4,-0.058824,-0.57895,<undefined>,-0.26733,0.0077312,0.53846,0.069853,0.075981,-0.0098034,0.092493
C60,control,F02,famous,A,139,704,TRUE,s039,-0.1875,-0.37796,-0.17857,-0.13235,0,-0.37447,-0.28418,-0.086341,0.071429,0.26471,-0.22549,-0.24372,-0.31501,-0.30474,-0.46746,0.3203,<undefined>,-0.3806,-0.27219,-0.5,-0.21429,-0.39967,-0.12629,-0.46429,-0.57204,0.060225,-0.25879,<undefined>,-0.26733,-0.21429,-0.42663,-0.33876,-0.41019,-0.44954,-0.76667,-0.06805,<undefined>,-0.26733,<undefined>,-0.46429,-0.16632,-0.37377,-0.13636,-0.4375,-0.23155
C61,control,F02,famous,A,50,744,TRUE,s040,0.53125,0.0625,0.36595,-0.42565,0.26923,-0.54587,-0.21801,-0.29089,-0.34615,0.29412,-0.42741,-0.4303,-0.4413,-0.44689,0.34763,-0.34133,<undefined>,-0.31316,-0.43804,0.58981,0.65385,-0.46601,-0.3759,-0.24943,-0.3149,-0.29996,-0.4344,<undefined>,-0.10105,-0.29692,-0.04379,-0.2417,-0.34502,-0.41595,-0.73333,-0.38149,<undefined>,0.0077312,-0.46429,<undefined>,0.0077312,-0.36901,-0.11687,0.34375,-0.20524
