subj,ability,face,fame,angle,trial,rt,acc,sq,iaseq,s001,s002,s003,s004,s005,s006,s007,s008,s009,s010,s011,s012,s013,s014,s015
D06,devprop,F01,famous,A,50,2352,FALSE,s001,x,x,x,x,x,bBbBbBdAdAdAdAdAdAeBeBeBeBeBeBcAcAcAcAcAcBcBcB,bBcAcAdBdBdBdBdBdBeBeBeBeBeBeBdAcAcAcAcAcAcAcAcAcAeBeBeBeBeBeBcCcCcCcCcCdAdAdAdAdAdAdAdAeBeBeBeBeBeBeBeBeBdAdAdAcAcAcAcAcAcAcAcAcBcBcBcBcBcCcCcCcCcCcCcCcCeBeBeBeBeBeBeBeBdBdBdBbBbB,cAcAcAcAdBdBdBdBdBdBdBdBdBdBdBcAcAcAcAcAcAcAcAcAcAcAcAcAcAcBcBcBcBcBcBcBcBcBcBcBcBcBcBcBdBdBdBdBdBdBdBdBdBdBdBcAcAcAcAcAcAcAcBcBcBcBdB,x,cAcAcAeBeBeBeBeBeBeBeBeBeBcAcAcA,dBdBdBdBdBdBdBdBdBdAfBeBfBfBfBfBfBfBdAdAdAdAdAdAdBdBdCdCdCdCdCdCdCdCfBfBfBfBfBfBfBfBfBfBfBfBdBdB,cAcAcAcAdBdBdBdBdBdBdBdBdBdBcAcAcAcCcCcCcC,bBcAcAcAcAcAcAcAcAcAcAcAcAcAcAcAcA,cCcCcCcCcCdBdBeBeBeBeBeBcCcCcCcCcCcAcAcAcAcAcAcAcAcAcAcCcCcC,dAdAdAdAcAcAcAcCcCcCcCcCdBdBdBdBdBcBcBcBcAcAcAcAcAcCcCcCcCcCcCcAcAcAcA,bBbBbBdBdBdAdAdAeBeBeBeBeBdAdAdAdAdAdBdBdBdBdBdAdAdAdAdAdAdAdAdAeBeBeBeBeBeBdBdBdBdBdCdCdCdBdBdBdBdAdAdA
D08,devprop,F01,famous,A,139,3936,FALSE,s002,x,x,x,x,x,bBbBbBdAdAdAdAdAdAeBeBeBeBeBeBcAcAcAcAcAcBcBcB,bBcAcAdBdBdBdBdBdBeBeBeBeBeBeBdAcAcAcAcAcAcAcAcAcAeBeBeBeBeBeBcCcCcCcCcCdAdAdAdAdAdAdAdAeBeBeBeBeBeBeBeBeBdAdAdAcAcAcAcAcAcAcAcAcBcBcBcBcBcCcCcCcCcCcCcCcCeBeBeBeBeBeBeBeBdBdBdBbBbB,cAcAcAcAdBdBdBdBdBdBdBdBdBdBdBcAcAcAcAcAcAcAcAcAcAcAcAcAcAcBcBcBcBcBcBcBcBcBcBcBcBcBcBcBdBdBdBdBdBdBdBdBdBdBdBcAcAcAcAcAcAcAcBcBcBcBdB,x,cAcAcAeBeBeBeBeBeBeBeBeBeBcAcAcA,dBdBdBdBdBdBdBdBdBdAfBeBfBfBfBfBfBfBdAdAdAdAdAdAdBdBdCdCdCdCdCdCdCdCfBfBfBfBfBfBfBfBfBfBfBfBdBdB,cAcAcAcAdBdBdBdBdBdBdBdBdBdBcAcAcAcCcCcCcC,bBcAcAcAcAcAcAcAcAcAcAcAcAcAcAcAcA,cCcCcCcCcCdBdBeBeBeBeBeBcCcCcCcCcCcAcAcAcAcAcAcAcAcAcAcCcCcC,dAdAdAdAcAcAcAcCcCcCcCcCdBdBdBdBdBcBcBcBcAcAcAcAcAcCcCcCcCcCcCcAcAcAcA,bBbBbBdBdBdAdAdAeBeBeBeBeBdAdAdAdAdAdBdBdBdBdBdAdAdAdAdAdAdAdAdAeBeBeBeBeBeBdBdBdBdBdCdCdCdBdBdBdBdAdAdA
D13,devprop,F01,famous,A,118,2643,FALSE,s003,x,x,x,x,x,bBbBbBdAdAdAdAdAdAeBeBeBeBeBeBcAcAcAcAcAcBcBcB,bBcAcAdBdBdBdBdBdBeBeBeBeBeBeBdAcAcAcAcAcAcAcAcAcAeBeBeBeBeBeBcCcCcCcCcCdAdAdAdAdAdAdAdAeBeBeBeBeBeBeBeBeBdAdAdAcAcAcAcAcAcAcAcAcBcBcBcBcBcCcCcCcCcCcCcCcCeBeBeBeBeBeBeBeBdBdBdBbBbB,cAcAcAcAdBdBdBdBdBdBdBdBdBdBdBcAcAcAcAcAcAcAcAcAcAcAcAcAcAcBcBcBcBcBcBcBcBcBcBcBcBcBcBcBdBdBdBdBdBdBdBdBdBdBdBcAcAcAcAcAcAcAcBcBcBcBdB,x,cAcAcAeBeBeBeBeBeBeBeBeBeBcAcAcA,dBdBdBdBdBdBdBdBdBdAfBeBfBfBfBfBfBfBdAdAdAdAdAdAdBdBdCdCdCdCdCdCdCdCfBfBfBfBfBfBfBfBfBfBfBfBdBdB,cAcAcAcAdBdBdBdBdBdBdBdBdBdBcAcAcAcCcCcCcC,bBcAcAcAcAcAcAcAcAcAcAcAcAcAcAcAcA,cCcCcCcCcCdBdBeBeBeBeBeBcCcCcCcCcCcAcAcAcAcAcAcAcAcAcAcCcCcC,dAdAdAdAcAcAcAcCcCcCcCcCdBdBdBdBdBcBcBcBcAcAcAcAcAcCcCcCcCcCcCcAcAcAcA,bBbBbBdBdBdAdAdAeBeBeBeBeBdAdAdAdAdAdBdBdBdBdBdAdAdAdAdAdAdAdAdAeBeBeBeBeBeBdBdBdBdBdCdCdCdBdBdBdBdAdAdA
D14,devprop,F01,famous,A,10,2766,FALSE,s004,x,x,x,x,x,bBbBbBdAdAdAdAdAdAeBeBeBeBeBeBcAcAcAcAcAcBcBcB,bBcAcAdBdBdBdBdBdBeBeBeBeBeBeBdAcAcAcAcAcAcAcAcAcAeBeBeBeBeBeBcCcCcCcCcCdAdAdAdAdAdAdAdAeBeBeBeBeBeBeBeBeBdAdAdAcAcAcAcAcAcAcAcAcBcBcBcBcBcCcCcCcCcCcCcCcCeBeBeBeBeBeBeBeBdBdBdBbBbB,cAcAcAcAdBdBdBdBdBdBdBdBdBdBdBcAcAcAcAcAcAcAcAcAcAcAcAcAcAcBcBcBcBcBcBcBcBcBcBcBcBcBcBcBdBdBdBdBdBdBdBdBdBdBdBcAcAcAcAcAcAcAcBcBcBcBdB,x,cAcAcAeBeBeBeBeBeBeBeBeBeBcAcAcA,dBdBdBdBdBdBdBdBdBdAfBeBfBfBfBfBfBfBdAdAdAdAdAdAdBdBdCdCdCdCdCdCdCdCfBfBfBfBfBfBfBfBfBfBfBfBdBdB,cAcAcAcAdBdBdBdBdBdBdBdBdBdBcAcAcAcCcCcCcC,bBcAcAcAcAcAcAcAcAcAcAcAcAcAcAcAcA,cCcCcCcCcCdBdBeBeBeBeBeBcCcCcCcCcCcAcAcAcAcAcAcAcAcAcAcCcCcC,dAdAdAdAcAcAcAcCcCcCcCcCdBdBdBdBdBcBcBcBcAcAcAcAcAcCcCcCcCcCcCcAcAcAcA,bBbBbBdBdBdAdAdAeBeBeBeBeBdAdAdAdAdAdBdBdBdBdBdAdAdAdAdAdAdAdAdAeBeBeBeBeBeBdBdBdBdBdCdCdCdBdBdBdBdAdAdA
D15,devprop,F01,famous,A,152,1335,TRUE,s005,bBbBbBdAdAdAdAdAdAeBeBeBeBeBeBcAcAcAcAcAcBcBcB,x,x,x,x,x,bBcAcAdBdBdBdBdBdBeBeBeBeBeBeBdAcAcAcAcAcAcAcAcAcAeBeBeBeBeBeBcCcCcCcCcCdAdAdAdAdAdAdAdAeBeBeBeBeBeBeBeBeBdAdAdAcAcAcAcAcAcAcAcAcBcBcBcBcBcCcCcCcCcCcCcCcCeBeBeBeBeBeBeBeBdBdBdBbBbB,cAcAcAcAdBdBdBdBdBdBdBdBdBdBdBcAcAcAcAcAcAcAcAcAcAcAcAcAcAcBcBcBcBcBcBcBcBcBcBcBcBcBcBcBdBdBdBdBdBdBdBdBdBdBdBcAcAcAcAcAcAcAcBcBcBcBdB,x,cAcAcAeBeBeBeBeBeBeBeBeBeBcAcAcA,dBdBdBdBdBdBdBdBdBdAfBeBfBfBfBfBfBfBdAdAdAdAdAdAdBdBdCdCdCdCdCdCdCdCfBfBfBfBfBfBfBfBfBfBfBfBdBdB,cAcAcAcAdBdBdBdBdBdBdBdBdBdBcAcAcAcCcCcCcC,bBcAcAcAcAcAcAcAcAcAcAcAcAcAcAcAcA,cCcCcCcCcCdBdBeBeBeBeBeBcCcCcCcCcCcAcAcAcAcAcAcAcAcAcAcCcCcC,dAdAdAdAcAcAcAcCcCcCcCcCdBdBdBdBdBcBcBcBcAcAcAcAcAcCcCcCcCcCcCcAcAcAcA,bBbBbBdBdBdAdAdAeBeBeBeBeBdAdAdAdAdAdBdBdBdBdBdAdAdAdAdAdAdAdAdAeBeBeBeBeBeBdBdBdBdBdCdCdCdBdBdBdBdAdAdA
D16,devprop,F01,famous,A,25,4633,TRUE,s006,bBcAcAdBdBdBdBdBdBeBeBeBeBeBeBdAcAcAcAcAcAcAcAcAcAeBeBeBeBeBeBcCcCcCcCcCdAdAdAdAdAdAdAdAeBeBeBeBeBeBeBeBeBdAdAdAcAcAcAcAcAcAcAcAcBcBcBcBcBcCcCcCcCcCcCcCcCeBeBeBeBeBeBeBeBdBdBdBbBbB,x,x,x,x,bBbBbBdAdAdAdAdAdAeBeBeBeBeBeBcAcAcAcAcAcBcBcB,x,cAcAcAcAdBdBdBdBdBdBdBdBdBdBdBcAcAcAcAcAcAcAcAcAcAcAcAcAcAcBcBcBcBcBcBcBcBcBcBcBcBcBcBcBdBdBdBdBdBdBdBdBdBdBdBcAcAcAcAcAcAcAcBcBcBcBdB,x,cAcAcAeBeBeBeBeBeBeBeBeBeBcAcAcA,dBdBdBdBdBdBdBdBdBdAfBeBfBfBfBfBfBfBdAdAdAdAdAdAdBdBdCdCdCdCdCdCdCdCfBfBfBfBfBfBfBfBfBfBfBfBdBdB,cAcAcAcAdBdBdBdBdBdBdBdBdBdBcAcAcAcCcCcCcC,bBcAcAcAcAcAcAcAcAcAcAcAcAcAcAcAcA,cCcCcCcCcCdBdBeBeBeBeBeBcCcCcCcCcCcAcAcAcAcAcAcAcAcAcAcCcCcC,dAdAdAdAcAcAcAcCcCcCcCcCdBdBdBdBdBcBcBcBcAcAcAcAcAcCcCcCcCcCcCcAcAcAcA,bBbBbBdBdBdAdAdAeBeBeBeBeBdAdAdAdAdAdBdBdBdBdBdAdAdAdAdAdAdAdAdAeBeBeBeBeBeBdBdBdBdBdCdCdCdBdBdBdBdAdAdA
D17,devprop,F01,famous,A,111,3608,TRUE,s007,cAcAcAcAdBdBdBdBdBdBdBdBdBdBdBcAcAcAcAcAcAcAcAcAcAcAcAcAcAcBcBcBcBcBcBcBcBcBcBcBcBcBcBcBdBdBdBdBdBdBdBdBdBdBdBcAcAcAcAcAcAcAcBcBcBcBdB,x,x,x,x,bBbBbBdAdAdAdAdAdAeBeBeBeBeBeBcAcAcAcAcAcBcBcB,bBcAcAdBdBdBdBdBdBeBeBeBeBeBeBdAcAcAcAcAcAcAcAcAcAeBeBeBeBeBeBcCcCcCcCcCdAdAdAdAdAdAdAdAeBeBeBeBeBeBeBeBeBdAdAdAcAcAcAcAcAcAcAcAcBcBcBcBcBcCcCcCcCcCcCcCcCeBeBeBeBeBeBeBeBdBdBdBbBbB,x,x,cAcAcAeBeBeBeBeBeBeBeBeBeBcAcAcA,dBdBdBdBdBdBdBdBdBdAfBeBfBfBfBfBfBfBdAdAdAdAdAdAdBdBdCdCdCdCdCdCdCdCfBfBfBfBfBfBfBfBfBfBfBfBdBdB,cAcAcAcAdBdBdBdBdBdBdBdBdBdBcAcAcAcCcCcCcC,bBcAcAcAcAcAcAcAcAcAcAcAcAcAcAcAcA,cCcCcCcCcCdBdBeBeBeBeBeBcCcCcCcCcCcAcAcAcAcAcAcAcAcAcAcCcCcC,dAdAdAdAcAcAcAcCcCcCcCcCdBdBdBdBdBcBcBcBcAcAcAcAcAcCcCcCcCcCcCcAcAcAcA,bBbBbBdBdBdAdAdAeBeBeBeBeBdAdAdAdAdAdBdBdBdBdBdAdAdAdAdAdAdAdAdAeBeBeBeBeBeBdBdBdBdBdCdCdCdBdBdBdBdAdAdA
D18,devprop,F01,famous,A,42,2055,FALSE,s008,x,x,x,x,x,bBbBbBdAdAdAdAdAdAeBeBeBeBeBeBcAcAcAcAcAcBcBcB,bBcAcAdBdBdBdBdBdBeBeBeBeBeBeBdAcAcAcAcAcAcAcAcAcAeBeBeBeBeBeBcCcCcCcCcCdAdAdAdAdAdAdAdAeBeBeBeBeBeBeBeBeBdAdAdAcAcAcAcAcAcAcAcAcBcBcBcBcBcCcCcCcCcCcCcCcCeBeBeBeBeBeBeBeBdBdBdBbBbB,cAcAcAcAdBdBdBdBdBdBdBdBdBdBdBcAcAcAcAcAcAcAcAcAcAcAcAcAcAcBcBcBcBcBcBcBcBcBcBcBcBcBcBcBdBdBdBdBdBdBdBdBdBdBdBcAcAcAcAcAcAcAcBcBcBcBdB,x,cAcAcAeBeBeBeBeBeBeBeBeBeBcAcAcA,dBdBdBdBdBdBdBdBdBdAfBeBfBfBfBfBfBfBdAdAdAdAdAdAdBdBdCdCdCdCdCdCdCdCfBfBfBfBfBfBfBfBfBfBfBfBdBdB,cAcAcAcAdBdBdBdBdBdBdBdBdBdBcAcAcAcCcCcCcC,bBcAcAcAcAcAcAcAcAcAcAcAcAcAcAcAcA,cCcCcCcCcCdBdBeBeBeBeBeBcCcCcCcCcCcAcAcAcAcAcAcAcAcAcAcCcCcC,dAdAdAdAcAcAcAcCcCcCcCcCdBdBdBdBdBcBcBcBcAcAcAcAcAcCcCcCcCcCcCcAcAcAcA,bBbBbBdBdBdAdAdAeBeBeBeBeBdAdAdAdAdAdBdBdBdBdBdAdAdAdAdAdAdAdAdAeBeBeBeBeBeBdBdBdBdBdCdCdCdBdBdBdBdAdAdA
D90,devprop,F01,famous,A,100,909,TRUE,s009,cAcAcAeBeBeBeBeBeBeBeBeBeBcAcAcA,x,x,x,x,bBbBbBdAdAdAdAdAdAeBeBeBeBeBeBcAcAcAcAcAcBcBcB,bBcAcAdBdBdBdBdBdBeBeBeBeBeBeBdAcAcAcAcAcAcAcAcAcAeBeBeBeBeBeBcCcCcCcCcCdAdAdAdAdAdAdAdAeBeBeBeBeBeBeBeBeBdAdAdAcAcAcAcAcAcAcAcAcBcBcBcBcBcCcCcCcCcCcCcCcCeBeBeBeBeBeBeBeBdBdBdBbBbB,cAcAcAcAdBdBdBdBdBdBdBdBdBdBdBcAcAcAcAcAcAcAcAcAcAcAcAcAcAcBcBcBcBcBcBcBcBcBcBcBcBcBcBcBdBdBdBdBdBdBdBdBdBdBdBcAcAcAcAcAcAcAcBcBcBcBdB,x,x,dBdBdBdBdBdBdBdBdBdAfBeBfBfBfBfBfBfBdAdAdAdAdAdAdBdBdCdCdCdCdCdCdCdCfBfBfBfBfBfBfBfBfBfBfBfBdBdB,cAcAcAcAdBdBdBdBdBdBdBdBdBdBcAcAcAcCcCcCcC,bBcAcAcAcAcAcAcAcAcAcAcAcAcAcAcAcA,cCcCcCcCcCdBdBeBeBeBeBeBcCcCcCcCcCcAcAcAcAcAcAcAcAcAcAcCcCcC,dAdAdAdAcAcAcAcCcCcCcCcCdBdBdBdBdBcBcBcBcAcAcAcAcAcCcCcCcCcCcCcAcAcAcA,bBbBbBdBdBdAdAdAeBeBeBeBeBdAdAdAdAdAdBdBdBdBdBdAdAdAdAdAdAdAdAdAeBeBeBeBeBeBdBdBdBdBdCdCdCdBdBdBdBdAdAdA
D91,devprop,F01,famous,A,140,2494,TRUE,s010,dBdBdBdBdBdBdBdBdBdAfBeBfBfBfBfBfBfBdAdAdAdAdAdAdBdBdCdCdCdCdCdCdCdCfBfBfBfBfBfBfBfBfBfBfBfBdBdB,x,x,x,x,bBbBbBdAdAdAdAdAdAeBeBeBeBeBeBcAcAcAcAcAcBcBcB,bBcAcAdBdBdBdBdBdBeBeBeBeBeBeBdAcAcAcAcAcAcAcAcAcAeBeBeBeBeBeBcCcCcCcCcCdAdAdAdAdAdAdAdAeBeBeBeBeBeBeBeBeBdAdAdAcAcAcAcAcAcAcAcAcBcBcBcBcBcCcCcCcCcCcCcCcCeBeBeBeBeBeBeBeBdBdBdBbBbB,cAcAcAcAdBdBdBdBdBdBdBdBdBdBdBcAcAcAcAcAcAcAcAcAcAcAcAcAcAcBcBcBcBcBcBcBcBcBcBcBcBcBcBcBdBdBdBdBdBdBdBdBdBdBdBcAcAcAcAcAcAcAcBcBcBcBdB,x,cAcAcAeBeBeBeBeBeBeBeBeBeBcAcAcA,x,cAcAcAcAdBdBdBdBdBdBdBdBdBdBcAcAcAcCcCcCcC,bBcAcAcAcAcAcAcAcAcAcAcAcAcAcAcAcA,cCcCcCcCcCdBdBeBeBeBeBeBcCcCcCcCcCcAcAcAcAcAcAcAcAcAcAcCcCcC,dAdAdAdAcAcAcAcCcCcCcCcCdBdBdBdBdBcBcBcBcAcAcAcAcAcCcCcCcCcCcCcAcAcAcA,bBbBbBdBdBdAdAdAeBeBeBeBeBdAdAdAdAdAdBdBdBdBdBdAdAdAdAdAdAdAdAdAeBeBeBeBeBeBdBdBdBdBdCdCdCdBdBdBdBdAdAdA
D92,devprop,F01,famous,A,148,1221,TRUE,s011,cAcAcAcAdBdBdBdBdBdBdBdBdBdBcAcAcAcCcCcCcC,x,x,x,x,bBbBbBdAdAdAdAdAdAeBeBeBeBeBeBcAcAcAcAcAcBcBcB,bBcAcAdBdBdBdBdBdBeBeBeBeBeBeBdAcAcAcAcAcAcAcAcAcAeBeBeBeBeBeBcCcCcCcCcCdAdAdAdAdAdAdAdAeBeBeBeBeBeBeBeBeBdAdAdAcAcAcAcAcAcAcAcAcBcBcBcBcBcCcCcCcCcCcCcCcCeBeBeBeBeBeBeBeBdBdBdBbBbB,cAcAcAcAdBdBdBdBdBdBdBdBdBdBdBcAcAcAcAcAcAcAcAcAcAcAcAcAcAcBcBcBcBcBcBcBcBcBcBcBcBcBcBcBdBdBdBdBdBdBdBdBdBdBdBcAcAcAcAcAcAcAcBcBcBcBdB,x,cAcAcAeBeBeBeBeBeBeBeBeBeBcAcAcA,dBdBdBdBdBdBdBdBdBdAfBeBfBfBfBfBfBfBdAdAdAdAdAdAdBdBdCdCdCdCdCdCdCdCfBfBfBfBfBfBfBfBfBfBfBfBdBdB,x,bBcAcAcAcAcAcAcAcAcAcAcAcAcAcAcAcA,cCcCcCcCcCdBdBeBeBeBeBeBcCcCcCcCcCcAcAcAcAcAcAcAcAcAcAcCcCcC,dAdAdAdAcAcAcAcCcCcCcCcCdBdBdBdBdBcBcBcBcAcAcAcAcAcCcCcCcCcCcCcAcAcAcA,bBbBbBdBdBdAdAdAeBeBeBeBeBdAdAdAdAdAdBdBdBdBdBdAdAdAdAdAdAdAdAdAeBeBeBeBeBeBdBdBdBdBdCdCdCdBdBdBdBdAdAdA
D93,devprop,F01,famous,A,81,1038,TRUE,s012,bBcAcAcAcAcAcAcAcAcAcAcAcAcAcAcAcA,x,x,x,x,bBbBbBdAdAdAdAdAdAeBeBeBeBeBeBcAcAcAcAcAcBcBcB,bBcAcAdBdBdBdBdBdBeBeBeBeBeBeBdAcAcAcAcAcAcAcAcAcAeBeBeBeBeBeBcCcCcCcCcCdAdAdAdAdAdAdAdAeBeBeBeBeBeBeBeBeBdAdAdAcAcAcAcAcAcAcAcAcBcBcBcBcBcCcCcCcCcCcCcCcCeBeBeBeBeBeBeBeBdBdBdBbBbB,cAcAcAcAdBdBdBdBdBdBdBdBdBdBdBcAcAcAcAcAcAcAcAcAcAcAcAcAcAcBcBcBcBcBcBcBcBcBcBcBcBcBcBcBdBdBdBdBdBdBdBdBdBdBdBcAcAcAcAcAcAcAcBcBcBcBdB,x,cAcAcAeBeBeBeBeBeBeBeBeBeBcAcAcA,dBdBdBdBdBdBdBdBdBdAfBeBfBfBfBfBfBfBdAdAdAdAdAdAdBdBdCdCdCdCdCdCdCdCfBfBfBfBfBfBfBfBfBfBfBfBdBdB,cAcAcAcAdBdBdBdBdBdBdBdBdBdBcAcAcAcCcCcCcC,x,cCcCcCcCcCdBdBeBeBeBeBeBcCcCcCcCcCcAcAcAcAcAcAcAcAcAcAcCcCcC,dAdAdAdAcAcAcAcCcCcCcCcCdBdBdBdBdBcBcBcBcAcAcAcAcAcCcCcCcCcCcCcAcAcAcA,bBbBbBdBdBdAdAdAeBeBeBeBeBdAdAdAdAdAdBdBdBdBdBdAdAdAdAdAdAdAdAdAeBeBeBeBeBeBdBdBdBdBdCdCdCdBdBdBdBdAdAdA
D94,devprop,F01,famous,A,106,1602,TRUE,s013,cCcCcCcCcCdBdBeBeBeBeBeBcCcCcCcCcCcAcAcAcAcAcAcAcAcAcAcCcCcC,x,x,x,x,bBbBbBdAdAdAdAdAdAeBeBeBeBeBeBcAcAcAcAcAcBcBcB,bBcAcAdBdBdBdBdBdBeBeBeBeBeBeBdAcAcAcAcAcAcAcAcAcAeBeBeBeBeBeBcCcCcCcCcCdAdAdAdAdAdAdAdAeBeBeBeBeBeBeBeBeBdAdAdAcAcAcAcAcAcAcAcAcBcBcBcBcBcCcCcCcCcCcCcCcCeBeBeBeBeBeBeBeBdBdBdBbBbB,cAcAcAcAdBdBdBdBdBdBdBdBdBdBdBcAcAcAcAcAcAcAcAcAcAcAcAcAcAcBcBcBcBcBcBcBcBcBcBcBcBcBcBcBdBdBdBdBdBdBdBdBdBdBdBcAcAcAcAcAcAcAcBcBcBcBdB,x,cAcAcAeBeBeBeBeBeBeBeBeBeBcAcAcA,dBdBdBdBdBdBdBdBdBdAfBeBfBfBfBfBfBfBdAdAdAdAdAdAdBdBdCdCdCdCdCdCdCdCfBfBfBfBfBfBfBfBfBfBfBfBdBdB,cAcAcAcAdBdBdBdBdBdBdBdBdBdBcAcAcAcCcCcCcC,bBcAcAcAcAcAcAcAcAcAcAcAcAcAcAcAcA,x,dAdAdAdAcAcAcAcCcCcCcCcCdBdBdBdBdBcBcBcBcAcAcAcAcAcCcCcCcCcCcCcAcAcAcA,bBbBbBdBdBdAdAdAeBeBeBeBeBdAdAdAdAdAdBdBdBdBdBdAdAdAdAdAdAdAdAdAeBeBeBeBeBeBdBdBdBdBdCdCdCdBdBdBdBdAdAdA
D95,devprop,F01,famous,A,138,1732,TRUE,s014,dAdAdAdAcAcAcAcCcCcCcCcCdBdBdBdBdBcBcBcBcAcAcAcAcAcCcCcCcCcCcCcAcAcAcA,x,x,x,x,bBbBbBdAdAdAdAdAdAeBeBeBeBeBeBcAcAcAcAcAcBcBcB,bBcAcAdBdBdBdBdBdBeBeBeBeBeBeBdAcAcAcAcAcAcAcAcAcAeBeBeBeBeBeBcCcCcCcCcCdAdAdAdAdAdAdAdAeBeBeBeBeBeBeBeBeBdAdAdAcAcAcAcAcAcAcAcAcBcBcBcBcBcCcCcCcCcCcCcCcCeBeBeBeBeBeBeBeBdBdBdBbBbB,cAcAcAcAdBdBdBdBdBdBdBdBdBdBdBcAcAcAcAcAcAcAcAcAcAcAcAcAcAcBcBcBcBcBcBcBcBcBcBcBcBcBcBcBdBdBdBdBdBdBdBdBdBdBdBcAcAcAcAcAcAcAcBcBcBcBdB,x,cAcAcAeBeBeBeBeBeBeBeBeBeBcAcAcA,dBdBdBdBdBdBdBdBdBdAfBeBfBfBfBfBfBfBdAdAdAdAdAdAdBdBdCdCdCdCdCdCdCdCfBfBfBfBfBfBfBfBfBfBfBfBdBdB,cAcAcAcAdBdBdBdBdBdBdBdBdBdBcAcAcAcCcCcCcC,bBcAcAcAcAcAcAcAcAcAcAcAcAcAcAcAcA,cCcCcCcCcCdBdBeBeBeBeBeBcCcCcCcCcCcAcAcAcAcAcAcAcAcAcAcCcCcC,x,bBbBbBdBdBdAdAdAeBeBeBeBeBdAdAdAdAdAdBdBdBdBdBdAdAdAdAdAdAdAdAdAeBeBeBeBeBeBdBdBdBdBdCdCdCdBdBdBdBdAdAdA
D96,devprop,F01,famous,A,42,2774,TRUE,s015,bBbBbBdBdBdAdAdAeBeBeBeBeBdAdAdAdAdAdBdBdBdBdBdAdAdAdAdAdAdAdAdAeBeBeBeBeBeBdBdBdBdBdCdCdCdBdBdBdBdAdAdA,x,x,x,x,bBbBbBdAdAdAdAdAdAeBeBeBeBeBeBcAcAcAcAcAcBcBcB,bBcAcAdBdBdBdBdBdBeBeBeBeBeBeBdAcAcAcAcAcAcAcAcAcAeBeBeBeBeBeBcCcCcCcCcCdAdAdAdAdAdAdAdAeBeBeBeBeBeBeBeBeBdAdAdAcAcAcAcAcAcAcAcAcBcBcBcBcBcCcCcCcCcCcCcCcCeBeBeBeBeBeBeBeBdBdBdBbBbB,cAcAcAcAdBdBdBdBdBdBdBdBdBdBdBcAcAcAcAcAcAcAcAcAcAcAcAcAcAcBcBcBcBcBcBcBcBcBcBcBcBcBcBcBdBdBdBdBdBdBdBdBdBdBdBcAcAcAcAcAcAcAcBcBcBcBdB,x,cAcAcAeBeBeBeBeBeBeBeBeBeBcAcAcA,dBdBdBdBdBdBdBdBdBdAfBeBfBfBfBfBfBfBdAdAdAdAdAdAdBdBdCdCdCdCdCdCdCdCfBfBfBfBfBfBfBfBfBfBfBfBdBdB,cAcAcAcAdBdBdBdBdBdBdBdBdBdBcAcAcAcCcCcCcC,bBcAcAcAcAcAcAcAcAcAcAcAcAcAcAcAcA,cCcCcCcCcCdBdBeBeBeBeBeBcCcCcCcCcCcAcAcAcAcAcAcAcAcAcAcCcCcC,dAdAdAdAcAcAcAcCcCcCcCcCdBdBdBdBdBcBcBcBcAcAcAcAcAcCcCcCcCcCcCcAcAcAcA,x
D06,devprop,F01,famous,B,23,5236,TRUE,s001,dBdBdBdBdBdBdBdBdBcAcAcAcAcAcAdBdBdBdBdBdBdBdBdBdBcAcAcAcAcAcAcAcCcCcCcCcCcCcCcCcCdBdBdBdBdBdBdBdBcAcAcAcAcAcAcAcAcAcAcAcAcAbBaBaBaBaBaBaBaBbBcBcBcBcBcBcBcCcCcCcCcCcCcCdBdBdBdBdBdBdBdBdB,x,cCcCbBcBcBcBcBcAdAdAdAdAdAdAdAdAdAdAdAdCdCdCdCdCdCdCdCdCdCdCdCdCdCdCdCdCdBdBdBdBdBdBdBdBdBdBdBdBdBdBdBdBeBdBeBdBdCdCdCdCdCdCdCdCdCdCdCdCdCdCdCdCdCdCcAcBcAcAcAbBbBbBbBbBbBbBbBdBdBdBdBdBdBdBdBdBdB,x,x,dBdBdBdBdBcBcBcBcBcBcBeBeBeBeBeBeBeBcBcBcBcBcBcCcCcCcC,dBdBdBdBdBeBeBeBeBeBcBcBcBcCcCcCcCcCcCcCcCdBdBdBdBdBdBdBdBdBdBcAdAdAeBeBdBdBdBdBdBcBcBcBcBcAcAcAcAcAcAcAcAbBbBbBbBbBbBaBcBdBdBdBdBdBeBeBeBeBeBeBeBeBeBeBdCdCdCdCdCdCdCdCdCdCdBdBdBdBdBdBdBdBdBdB,dBdBdBdBdBcBcBcBcBcAcAcAcAcAcAcAcCcCcCcCcCcCcCcCcCcCdBdBdBdBeBdBdBdBdBeBcBcBcBcBcBcCcCcCcCcCcCcCcAcAcAcAcAcAcAcCcCcCcCcCcCcCcCdBdBdBdBdBdBdBcBcBcBcBcCcCcCcCcCcAcAcAcAcAcAcA,x,fBfBfBfBeBeBeBeBeBeBdBdBdBdBdBdB,cCdCdCdCdCdBdBdBdBdBdBeBeBeBeBeBeBdBdBdBdBdCdCdCdCdCcCcCcCcCfB,x,cAcAcAcAcAcAcAcAcAcAdAcAcAcAcAcAcAcAcAcAcAcAdBdA,cAcAcAcCcCcCcCcCcCcCcCcCcCdBdBdBdBeBeBeBeBeBeBbBcCcCcCcCcCcCcCcCcCcAcAcAcAcAcAbBbBbBbBbBbBbBbBcCdCdCdCdCcCcCcCcCcCcCcCcCcCcAcAcAcAcAcAdCdCdCdCeBeBeBeB,cAcAcAdBcAcBcCcCcCcCdBdBcCcCcCdBdBdBdBdBdBdBdBcCcCcCcCcCcAcAcAcAcAcAcAcCcCcCcCcCcCcCcCcCcCcAcAcAcAcAcCcCcCcCcCcCcCcCcCcCcC,cAcAcAcAcAcAeBeBeBeBeBdBdBdBdBdBdBdBdBdBdBdBcAdAcAcAcAcAcCcCcCeBeBeBeBeBeBdCdCdCdCdCdCdCdCdCdCdCeBeBeBcAcAcAcAcAcAcAcAcAcAdBdBdBdBeBeBeB
D08,devprop,F01,famous,B,10,5390,TRUE,s002,cCcCbBcBcBcBcBcAdAdAdAdAdAdAdAdAdAdAdAdCdCdCdCdCdCdCdCdCdCdCdCdCdCdCdCdCdBdBdBdBdBdBdBdBdBdBdBdBdBdBdBdBeBdBeBdBdCdCdCdCdCdCdCdCdCdCdCdCdCdCdCdCdCdCcAcBcAcAcAbBbBbBbBbBbBbBbBdBdBdBdBdBdBdBdBdBdB,dBdBdBdBdBdBdBdBdBcAcAcAcAcAcAdBdBdBdBdBdBdBdBdBdBcAcAcAcAcAcAcAcCcCcCcCcCcCcCcCcCdBdBdBdBdBdBdBdBcAcAcAcAcAcAcAcAcAcAcAcAcAbBaBaBaBaBaBaBaBbBcBcBcBcBcBcBcCcCcCcCcCcCcCdBdBdBdBdBdBdBdBdB,x,x,x,dBdBdBdBdBcBcBcBcBcBcBeBeBeBeBeBeBeBcBcBcBcBcBcCcCcCcC,dBdBdBdBdBeBeBeBeBeBcBcBcBcCcCcCcCcCcCcCcCdBdBdBdBdBdBdBdBdBdBcAdAdAeBeBdBdBdBdBdBcBcBcBcBcAcAcAcAcAcAcAcAbBbBbBbBbBbBaBcBdBdBdBdBdBeBeBeBeBeBeBeBeBeBeBdCdCdCdCdCdCdCdCdCdCdBdBdBdBdBdBdBdBdBdB,dBdBdBdBdBcBcBcBcBcAcAcAcAcAcAcAcCcCcCcCcCcCcCcCcCcCdBdBdBdBeBdBdBdBdBeBcBcBcBcBcBcCcCcCcCcCcCcCcAcAcAcAcAcAcAcCcCcCcCcCcCcCcCdBdBdBdBdBdBdBcBcBcBcBcCcCcCcCcCcAcAcAcAcAcAcA,x,fBfBfBfBeBeBeBeBeBeBdBdBdBdBdBdB,cCdCdCdCdCdBdBdBdBdBdBeBeBeBeBeBeBdBdBdBdBdCdCdCdCdCcCcCcCcCfB,x,cAcAcAcAcAcAcAcAcAcAdAcAcAcAcAcAcAcAcAcAcAcAdBdA,cAcAcAcCcCcCcCcCcCcCcCcCcCdBdBdBdBeBeBeBeBeBeBbBcCcCcCcCcCcCcCcCcCcAcAcAcAcAcAbBbBbBbBbBbBbBbBcCdCdCdCdCcCcCcCcCcCcCcCcCcCcAcAcAcAcAcAdCdCdCdCeBeBeBeB,cAcAcAdBcAcBcCcCcCcCdBdBcCcCcCdBdBdBdBdBdBdBdBcCcCcCcCcCcAcAcAcAcAcAcAcCcCcCcCcCcCcCcCcCcCcAcAcAcAcAcCcCcCcCcCcCcCcCcCcCcC,cAcAcAcAcAcAeBeBeBeBeBdBdBdBdBdBdBdBdBdBdBdBcAdAcAcAcAcAcCcCcCeBeBeBeBeBeBdCdCdCdCdCdCdCdCdCdCdCeBeBeBcAcAcAcAcAcAcAcAcAcAdBdBdBdBeBeBeB
D13,devprop,F01,famous,B,24,2546,FALSE,s003,x,dBdBdBdBdBdBdBdBdBcAcAcAcAcAcAdBdBdBdBdBdBdBdBdBdBcAcAcAcAcAcAcAcCcCcCcCcCcCcCcCcCdBdBdBdBdBdBdBdBcAcAcAcAcAcAcAcAcAcAcAcAcAbBaBaBaBaBaBaBaBbBcBcBcBcBcBcBcCcCcCcCcCcCcCdBdBdBdBdBdBdBdBdB,cCcCbBcBcBcBcBcAdAdAdAdAdAdAdAdAdAdAdAdCdCdCdCdCdCdCdCdCdCdCdCdCdCdCdCdCdBdBdBdBdBdBdBdBdBdBdBdBdBdBdBdBeBdBeBdBdCdCdCdCdCdCdCdCdCdCdCdCdCdCdCdCdCdCcAcBcAcAcAbBbBbBbBbBbBbBbBdBdBdBdBdBdBdBdBdBdB,x,x,dBdBdBdBdBcBcBcBcBcBcBeBeBeBeBeBeBeBcBcBcBcBcBcCcCcCcC,dBdBdBdBdBeBeBeBeBeBcBcBcBcCcCcCcCcCcCcCcCdBdBdBdBdBdBdBdBdBdBcAdAdAeBeBdBdBdBdBdBcBcBcBcBcAcAcAcAcAcAcAcAbBbBbBbBbBbBaBcBdBdBdBdBdBeBeBeBeBeBeBeBeBeBeBdCdCdCdCdCdCdCdCdCdCdBdBdBdBdBdBdBdBdBdB,dBdBdBdBdBcBcBcBcBcAcAcAcAcAcAcAcCcCcCcCcCcCcCcCcCcCdBdBdBdBeBdBdBdBdBeBcBcBcBcBcBcCcCcCcCcCcCcCcAcAcAcAcAcAcAcCcCcCcCcCcCcCcCdBdBdBdBdBdBdBcBcBcBcBcCcCcCcCcCcAcAcAcAcAcAcA,x,fBfBfBfBeBeBeBeBeBeBdBdBdBdBdBdB,cCdCdCdCdCdBdBdBdBdBdBeBeBeBeBeBeBdBdBdBdBdCdCdCdCdCcCcCcCcCfB,x,cAcAcAcAcAcAcAcAcAcAdAcAcAcAcAcAcAcAcAcAcAcAdBdA,cAcAcAcCcCcCcCcCcCcCcCcCcCdBdBdBdBeBeBeBeBeBeBbBcCcCcCcCcCcCcCcCcCcAcAcAcAcAcAbBbBbBbBbBbBbBbBcCdCdCdCdCcCcCcCcCcCcCcCcCcCcAcAcAcAcAcAdCdCdCdCeBeBeBeB,cAcAcAdBcAcBcCcCcCcCdBdBcCcCcCdBdBdBdBdBdBdBdBcCcCcCcCcCcAcAcAcAcAcAcAcCcCcCcCcCcCcCcCcCcCcAcAcAcAcAcCcCcCcCcCcCcCcCcCcCcC,cAcAcAcAcAcAeBeBeBeBeBdBdBdBdBdBdBdBdBdBdBdBcAdAcAcAcAcAcCcCcCeBeBeBeBeBeBdCdCdCdCdCdCdCdCdCdCdCeBeBeBcAcAcAcAcAcAcAcAcAcAdBdBdBdBeBeBeB
D14,devprop,F01,famous,B,140,1047,FALSE,s004,x,dBdBdBdBdBdBdBdBdBcAcAcAcAcAcAdBdBdBdBdBdBdBdBdBdBcAcAcAcAcAcAcAcCcCcCcCcCcCcCcCcCdBdBdBdBdBdBdBdBcAcAcAcAcAcAcAcAcAcAcAcAcAbBaBaBaBaBaBaBaBbBcBcBcBcBcBcBcCcCcCcCcCcCcCdBdBdBdBdBdBdBdBdB,cCcCbBcBcBcBcBcAdAdAdAdAdAdAdAdAdAdAdAdCdCdCdCdCdCdCdCdCdCdCdCdCdCdCdCdCdBdBdBdBdBdBdBdBdBdBdBdBdBdBdBdBeBdBeBdBdCdCdCdCdCdCdCdCdCdCdCdCdCdCdCdCdCdCcAcBcAcAcAbBbBbBbBbBbBbBbBdBdBdBdBdBdBdBdBdBdB,x,x,dBdBdBdBdBcBcBcBcBcBcBeBeBeBeBeBeBeBcBcBcBcBcBcCcCcCcC,dBdBdBdBdBeBeBeBeBeBcBcBcBcCcCcCcCcCcCcCcCdBdBdBdBdBdBdBdBdBdBcAdAdAeBeBdBdBdBdBdBcBcBcBcBcAcAcAcAcAcAcAcAbBbBbBbBbBbBaBcBdBdBdBdBdBeBeBeBeBeBeBeBeBeBeBdCdCdCdCdCdCdCdCdCdCdBdBdBdBdBdBdBdBdBdB,dBdBdBdBdBcBcBcBcBcAcAcAcAcAcAcAcCcCcCcCcCcCcCcCcCcCdBdBdBdBeBdBdBdBdBeBcBcBcBcBcBcCcCcCcCcCcCcCcAcAcAcAcAcAcAcCcCcCcCcCcCcCcCdBdBdBdBdBdBdBcBcBcBcBcCcCcCcCcCcAcAcAcAcAcAcA,x,fBfBfBfBeBeBeBeBeBeBdBdBdBdBdBdB,cCdCdCdCdCdBdBdBdBdBdBeBeBeBeBeBeBdBdBdBdBdCdCdCdCdCcCcCcCcCfB,x,cAcAcAcAcAcAcAcAcAcAdAcAcAcAcAcAcAcAcAcAcAcAdBdA,cAcAcAcCcCcCcCcCcCcCcCcCcCdBdBdBdBeBeBeBeBeBeBbBcCcCcCcCcCcCcCcCcCcAcAcAcAcAcAbBbBbBbBbBbBbBbBcCdCdCdCdCcCcCcCcCcCcCcCcCcCcAcAcAcAcAcAdCdCdCdCeBeBeBeB,cAcAcAdBcAcBcCcCcCcCdBdBcCcCcCdBdBdBdBdBdBdBdBcCcCcCcCcCcAcAcAcAcAcAcAcCcCcCcCcCcCcCcCcCcCcAcAcAcAcAcCcCcCcCcCcCcCcCcCcCcC,cAcAcAcAcAcAeBeBeBeBeBdBdBdBdBdBdBdBdBdBdBdBcAdAcAcAcAcAcCcCcCeBeBeBeBeBeBdCdCdCdCdCdCdCdCdCdCdCeBeBeBcAcAcAcAcAcAcAcAcAcAdBdBdBdBeBeBeB
D15,devprop,F01,famous,B,105,1564,TRUE,s005,dBdBdBdBdBcBcBcBcBcBcBeBeBeBeBeBeBeBcBcBcBcBcBcCcCcCcC,dBdBdBdBdBdBdBdBdBcAcAcAcAcAcAdBdBdBdBdBdBdBdBdBdBcAcAcAcAcAcAcAcCcCcCcCcCcCcCcCcCdBdBdBdBdBdBdBdBcAcAcAcAcAcAcAcAcAcAcAcAcAbBaBaBaBaBaBaBaBbBcBcBcBcBcBcBcCcCcCcCcCcCcCdBdBdBdBdBdBdBdBdB,cCcCbBcBcBcBcBcAdAdAdAdAdAdAdAdAdAdAdAdCdCdCdCdCdCdCdCdCdCdCdCdCdCdCdCdCdBdBdBdBdBdBdBdBdBdBdBdBdBdBdBdBeBdBeBdBdCdCdCdCdCdCdCdCdCdCdCdCdCdCdCdCdCdCcAcBcAcAcAbBbBbBbBbBbBbBbBdBdBdBdBdBdBdBdBdBdB,x,x,x,dBdBdBdBdBeBeBeBeBeBcBcBcBcCcCcCcCcCcCcCcCdBdBdBdBdBdBdBdBdBdBcAdAdAeBeBdBdBdBdBdBcBcBcBcBcAcAcAcAcAcAcAcAbBbBbBbBbBbBaBcBdBdBdBdBdBeBeBeBeBeBeBeBeBeBeBdCdCdCdCdCdCdCdCdCdCdBdBdBdBdBdBdBdBdBdB,dBdBdBdBdBcBcBcBcBcAcAcAcAcAcAcAcCcCcCcCcCcCcCcCcCcCdBdBdBdBeBdBdBdBdBeBcBcBcBcBcBcCcCcCcCcCcCcCcAcAcAcAcAcAcAcCcCcCcCcCcCcCcCdBdBdBdBdBdBdBcBcBcBcBcCcCcCcCcCcAcAcAcAcAcAcA,x,fBfBfBfBeBeBeBeBeBeBdBdBdBdBdBdB,cCdCdCdCdCdBdBdBdBdBdBeBeBeBeBeBeBdBdBdBdBdCdCdCdCdCcCcCcCcCfB,x,cAcAcAcAcAcAcAcAcAcAdAcAcAcAcAcAcAcAcAcAcAcAdBdA,cAcAcAcCcCcCcCcCcCcCcCcCcCdBdBdBdBeBeBeBeBeBeBbBcCcCcCcCcCcCcCcCcCcAcAcAcAcAcAbBbBbBbBbBbBbBbBcCdCdCdCdCcCcCcCcCcCcCcCcCcCcAcAcAcAcAcAdCdCdCdCeBeBeBeB,cAcAcAdBcAcBcCcCcCcCdBdBcCcCcCdBdBdBdBdBdBdBdBcCcCcCcCcCcAcAcAcAcAcAcAcCcCcCcCcCcCcCcCcCcCcAcAcAcAcAcCcCcCcCcCcCcCcCcCcCcC,cAcAcAcAcAcAeBeBeBeBeBdBdBdBdBdBdBdBdBdBdBdBcAdAcAcAcAcAcCcCcCeBeBeBeBeBeBdCdCdCdCdCdCdCdCdCdCdCeBeBeBcAcAcAcAcAcAcAcAcAcAdBdBdBdBeBeBeB
D16,devprop,F01,famous,B,152,9218,TRUE,s006,dBdBdBdBdBeBeBeBeBeBcBcBcBcCcCcCcCcCcCcCcCdBdBdBdBdBdBdBdBdBdBcAdAdAeBeBdBdBdBdBdBcBcBcBcBcAcAcAcAcAcAcAcAbBbBbBbBbBbBaBcBdBdBdBdBdBeBeBeBeBeBeBeBeBeBeBdCdCdCdCdCdCdCdCdCdCdBdBdBdBdBdBdBdBdBdB,dBdBdBdBdBdBdBdBdBcAcAcAcAcAcAdBdBdBdBdBdBdBdBdBdBcAcAcAcAcAcAcAcCcCcCcCcCcCcCcCcCdBdBdBdBdBdBdBdBcAcAcAcAcAcAcAcAcAcAcAcAcAbBaBaBaBaBaBaBaBbBcBcBcBcBcBcBcCcCcCcCcCcCcCdBdBdBdBdBdBdBdBdB,cCcCbBcBcBcBcBcAdAdAdAdAdAdAdAdAdAdAdAdCdCdCdCdCdCdCdCdCdCdCdCdCdCdCdCdCdBdBdBdBdBdBdBdBdBdBdBdBdBdBdBdBeBdBeBdBdCdCdCdCdCdCdCdCdCdCdCdCdCdCdCdCdCdCcAcBcAcAcAbBbBbBbBbBbBbBbBdBdBdBdBdBdBdBdBdBdB,x,x,dBdBdBdBdBcBcBcBcBcBcBeBeBeBeBeBeBeBcBcBcBcBcBcCcCcCcC,x,dBdBdBdBdBcBcBcBcBcAcAcAcAcAcAcAcCcCcCcCcCcCcCcCcCcCdBdBdBdBeBdBdBdBdBeBcBcBcBcBcBcCcCcCcCcCcCcCcAcAcAcAcAcAcAcCcCcCcCcCcCcCcCdBdBdBdBdBdBdBcBcBcBcBcCcCcCcCcCcAcAcAcAcAcAcA,x,fBfBfBfBeBeBeBeBeBeBdBdBdBdBdBdB,cCdCdCdCdCdBdBdBdBdBdBeBeBeBeBeBeBdBdBdBdBdCdCdCdCdCcCcCcCcCfB,x,cAcAcAcAcAcAcAcAcAcAdAcAcAcAcAcAcAcAcAcAcAcAdBdA,cAcAcAcCcCcCcCcCcCcCcCcCcCdBdBdBdBeBeBeBeBeBeBbBcCcCcCcCcCcCcCcCcCcAcAcAcAcAcAbBbBbBbBbBbBbBbBcCdCdCdCdCcCcCcCcCcCcCcCcCcCcAcAcAcAcAcAdCdCdCdCeBeBeBeB,cAcAcAdBcAcBcCcCcCcCdBdBcCcCcCdBdBdBdBdBdBdBdBcCcCcCcCcCcAcAcAcAcAcAcAcCcCcCcCcCcCcCcCcCcCcAcAcAcAcAcCcCcCcCcCcCcCcCcCcCcC,cAcAcAcAcAcAeBeBeBeBeBdBdBdBdBdBdBdBdBdBdBdBcAdAcAcAcAcAcCcCcCeBeBeBeBeBeBdCdCdCdCdCdCdCdCdCdCdCeBeBeBcAcAcAcAcAcAcAcAcAcAdBdBdBdBeBeBeB
D17,devprop,F01,famous,B,29,4577,TRUE,s007,dBdBdBdBdBcBcBcBcBcAcAcAcAcAcAcAcCcCcCcCcCcCcCcCcCcCdBdBdBdBeBdBdBdBdBeBcBcBcBcBcBcCcCcCcCcCcCcCcAcAcAcAcAcAcAcCcCcCcCcCcCcCcCdBdBdBdBdBdBdBcBcBcBcBcCcCcCcCcCcAcAcAcAcAcAcA,dBdBdBdBdBdBdBdBdBcAcAcAcAcAcAdBdBdBdBdBdBdBdBdBdBcAcAcAcAcAcAcAcCcCcCcCcCcCcCcCcCdBdBdBdBdBdBdBdBcAcAcAcAcAcAcAcAcAcAcAcAcAbBaBaBaBaBaBaBaBbBcBcBcBcBcBcBcCcCcCcCcCcCcCdBdBdBdBdBdBdBdBdB,cCcCbBcBcBcBcBcAdAdAdAdAdAdAdAdAdAdAdAdCdCdCdCdCdCdCdCdCdCdCdCdCdCdCdCdCdBdBdBdBdBdBdBdBdBdBdBdBdBdBdBdBeBdBeBdBdCdCdCdCdCdCdCdCdCdCdCdCdCdCdCdCdCdCcAcBcAcAcAbBbBbBbBbBbBbBbBdBdBdBdBdBdBdBdBdBdB,x,x,dBdBdBdBdBcBcBcBcBcBcBeBeBeBeBeBeBeBcBcBcBcBcBcCcCcCcC,dBdBdBdBdBeBeBeBeBeBcBcBcBcCcCcCcCcCcCcCcCdBdBdBdBdBdBdBdBdBdBcAdAdAeBeBdBdBdBdBdBcBcBcBcBcAcAcAcAcAcAcAcAbBbBbBbBbBbBaBcBdBdBdBdBdBeBeBeBeBeBeBeBeBeBeBdCdCdCdCdCdCdCdCdCdCdBdBdBdBdBdBdBdBdBdB,x,x,fBfBfBfBeBeBeBeBeBeBdBdBdBdBdBdB,cCdCdCdCdCdBdBdBdBdBdBeBeBeBeBeBeBdBdBdBdBdCdCdCdCdCcCcCcCcCfB,x,cAcAcAcAcAcAcAcAcAcAdAcAcAcAcAcAcAcAcAcAcAcAdBdA,cAcAcAcCcCcCcCcCcCcCcCcCcCdBdBdBdBeBeBeBeBeBeBbBcCcCcCcCcCcCcCcCcCcAcAcAcAcAcAbBbBbBbBbBbBbBbBcCdCdCdCdCcCcCcCcCcCcCcCcCcCcAcAcAcAcAcAdCdCdCdCeBeBeBeB,cAcAcAdBcAcBcCcCcCcCdBdBcCcCcCdBdBdBdBdBdBdBdBcCcCcCcCcCcAcAcAcAcAcAcAcCcCcCcCcCcCcCcCcCcCcAcAcAcAcAcCcCcCcCcCcCcCcCcCcCcC,cAcAcAcAcAcAeBeBeBeBeBdBdBdBdBdBdBdBdBdBdBdBcAdAcAcAcAcAcCcCcCeBeBeBeBeBeBdCdCdCdCdCdCdCdCdCdCdCeBeBeBcAcAcAcAcAcAcAcAcAcAdBdBdBdBeBeBeB
D18,devprop,F01,famous,B,87,2735,FALSE,s008,x,dBdBdBdBdBdBdBdBdBcAcAcAcAcAcAdBdBdBdBdBdBdBdBdBdBcAcAcAcAcAcAcAcCcCcCcCcCcCcCcCcCdBdBdBdBdBdBdBdBcAcAcAcAcAcAcAcAcAcAcAcAcAbBaBaBaBaBaBaBaBbBcBcBcBcBcBcBcCcCcCcCcCcCcCdBdBdBdBdBdBdBdBdB,cCcCbBcBcBcBcBcAdAdAdAdAdAdAdAdAdAdAdAdCdCdCdCdCdCdCdCdCdCdCdCdCdCdCdCdCdBdBdBdBdBdBdBdBdBdBdBdBdBdBdBdBeBdBeBdBdCdCdCdCdCdCdCdCdCdCdCdCdCdCdCdCdCdCcAcBcAcAcAbBbBbBbBbBbBbBbBdBdBdBdBdBdBdBdBdBdB,x,x,dBdBdBdBdBcBcBcBcBcBcBeBeBeBeBeBeBeBcBcBcBcBcBcCcCcCcC,dBdBdBdBdBeBeBeBeBeBcBcBcBcCcCcCcCcCcCcCcCdBdBdBdBdBdBdBdBdBdBcAdAdAeBeBdBdBdBdBdBcBcBcBcBcAcAcAcAcAcAcAcAbBbBbBbBbBbBaBcBdBdBdBdBdBeBeBeBeBeBeBeBeBeBeBdCdCdCdCdCdCdCdCdCdCdBdBdBdBdBdBdBdBdBdB,dBdBdBdBdBcBcBcBcBcAcAcAcAcAcAcAcCcCcCcCcCcCcCcCcCcCdBdBdBdBeBdBdBdBdBeBcBcBcBcBcBcCcCcCcCcCcCcCcAcAcAcAcAcAcAcCcCcCcCcCcCcCcCdBdBdBdBdBdBdBcBcBcBcBcCcCcCcCcCcAcAcAcAcAcAcA,x,fBfBfBfBeBeBeBeBeBeBdBdBdBdBdBdB,cCdCdCdCdCdBdBdBdBdBdBeBeBeBeBeBeBdBdBdBdBdCdCdCdCdCcCcCcCcCfB,x,cAcAcAcAcAcAcAcAcAcAdAcAcAcAcAcAcAcAcAcAcAcAdBdA,cAcAcAcCcCcCcCcCcCcCcCcCcCdBdBdBdBeBeBeBeBeBeBbBcCcCcCcCcCcCcCcCcCcAcAcAcAcAcAbBbBbBbBbBbBbBbBcCdCdCdCdCcCcCcCcCcCcCcCcCcCcAcAcAcAcAcAdCdCdCdCeBeBeBeB,cAcAcAdBcAcBcCcCcCcCdBdBcCcCcCdBdBdBdBdBdBdBdBcCcCcCcCcCcAcAcAcAcAcAcAcCcCcCcCcCcCcCcCcCcCcAcAcAcAcAcCcCcCcCcCcCcCcCcCcCcC,cAcAcAcAcAcAeBeBeBeBeBdBdBdBdBdBdBdBdBdBdBdBcAdAcAcAcAcAcCcCcCeBeBeBeBeBeBdCdCdCdCdCdCdCdCdCdCdCeBeBeBcAcAcAcAcAcAcAcAcAcAdBdBdBdBeBeBeB
D90,devprop,F01,famous,B,25,933,TRUE,s009,fBfBfBfBeBeBeBeBeBeBdBdBdBdBdBdB,dBdBdBdBdBdBdBdBdBcAcAcAcAcAcAdBdBdBdBdBdBdBdBdBdBcAcAcAcAcAcAcAcCcCcCcCcCcCcCcCcCdBdBdBdBdBdBdBdBcAcAcAcAcAcAcAcAcAcAcAcAcAbBaBaBaBaBaBaBaBbBcBcBcBcBcBcBcCcCcCcCcCcCcCdBdBdBdBdBdBdBdBdB,cCcCbBcBcBcBcBcAdAdAdAdAdAdAdAdAdAdAdAdCdCdCdCdCdCdCdCdCdCdCdCdCdCdCdCdCdBdBdBdBdBdBdBdBdBdBdBdBdBdBdBdBeBdBeBdBdCdCdCdCdCdCdCdCdCdCdCdCdCdCdCdCdCdCcAcBcAcAcAbBbBbBbBbBbBbBbBdBdBdBdBdBdBdBdBdBdB,x,x,dBdBdBdBdBcBcBcBcBcBcBeBeBeBeBeBeBeBcBcBcBcBcBcCcCcCcC,dBdBdBdBdBeBeBeBeBeBcBcBcBcCcCcCcCcCcCcCcCdBdBdBdBdBdBdBdBdBdBcAdAdAeBeBdBdBdBdBdBcBcBcBcBcAcAcAcAcAcAcAcAbBbBbBbBbBbBaBcBdBdBdBdBdBeBeBeBeBeBeBeBeBeBeBdCdCdCdCdCdCdCdCdCdCdBdBdBdBdBdBdBdBdBdB,dBdBdBdBdBcBcBcBcBcAcAcAcAcAcAcAcCcCcCcCcCcCcCcCcCcCdBdBdBdBeBdBdBdBdBeBcBcBcBcBcBcCcCcCcCcCcCcCcAcAcAcAcAcAcAcCcCcCcCcCcCcCcCdBdBdBdBdBdBdBcBcBcBcBcCcCcCcCcCcAcAcAcAcAcAcA,x,x,cCdCdCdCdCdBdBdBdBdBdBeBeBeBeBeBeBdBdBdBdBdCdCdCdCdCcCcCcCcCfB,x,cAcAcAcAcAcAcAcAcAcAdAcAcAcAcAcAcAcAcAcAcAcAdBdA,cAcAcAcCcCcCcCcCcCcCcCcCcCdBdBdBdBeBeBeBeBeBeBbBcCcCcCcCcCcCcCcCcCcAcAcAcAcAcAbBbBbBbBbBbBbBbBcCdCdCdCdCcCcCcCcCcCcCcCcCcCcAcAcAcAcAcAdCdCdCdCeBeBeBeB,cAcAcAdBcAcBcCcCcCcCdBdBcCcCcCdBdBdBdBdBdBdBdBcCcCcCcCcCcAcAcAcAcAcAcAcCcCcCcCcCcCcCcCcCcCcAcAcAcAcAcCcCcCcCcCcCcCcCcCcCcC,cAcAcAcAcAcAeBeBeBeBeBdBdBdBdBdBdBdBdBdBdBdBcAdAcAcAcAcAcCcCcCeBeBeBeBeBeBdCdCdCdCdCdCdCdCdCdCdCeBeBeBcAcAcAcAcAcAcAcAcAcAdBdBdBdBeBeBeB
D91,devprop,F01,famous,B,142,1597,TRUE,s010,cCdCdCdCdCdBdBdBdBdBdBeBeBeBeBeBeBdBdBdBdBdCdCdCdCdCcCcCcCcCfB,dBdBdBdBdBdBdBdBdBcAcAcAcAcAcAdBdBdBdBdBdBdBdBdBdBcAcAcAcAcAcAcAcCcCcCcCcCcCcCcCcCdBdBdBdBdBdBdBdBcAcAcAcAcAcAcAcAcAcAcAcAcAbBaBaBaBaBaBaBaBbBcBcBcBcBcBcBcCcCcCcCcCcCcCdBdBdBdBdBdBdBdBdB,cCcCbBcBcBcBcBcAdAdAdAdAdAdAdAdAdAdAdAdCdCdCdCdCdCdCdCdCdCdCdCdCdCdCdCdCdBdBdBdBdBdBdBdBdBdBdBdBdBdBdBdBeBdBeBdBdCdCdCdCdCdCdCdCdCdCdCdCdCdCdCdCdCdCcAcBcAcAcAbBbBbBbBbBbBbBbBdBdBdBdBdBdBdBdBdBdB,x,x,dBdBdBdBdBcBcBcBcBcBcBeBeBeBeBeBeBeBcBcBcBcBcBcCcCcCcC,dBdBdBdBdBeBeBeBeBeBcBcBcBcCcCcCcCcCcCcCcCdBdBdBdBdBdBdBdBdBdBcAdAdAeBeBdBdBdBdBdBcBcBcBcBcAcAcAcAcAcAcAcAbBbBbBbBbBbBaBcBdBdBdBdBdBeBeBeBeBeBeBeBeBeBeBdCdCdCdCdCdCdCdCdCdCdBdBdBdBdBdBdBdBdBdB,dBdBdBdBdBcBcBcBcBcAcAcAcAcAcAcAcCcCcCcCcCcCcCcCcCcCdBdBdBdBeBdBdBdBdBeBcBcBcBcBcBcCcCcCcCcCcCcCcAcAcAcAcAcAcAcCcCcCcCcCcCcCcCdBdBdBdBdBdBdBcBcBcBcBcCcCcCcCcCcAcAcAcAcAcAcA,x,fBfBfBfBeBeBeBeBeBeBdBdBdBdBdBdB,x,x,cAcAcAcAcAcAcAcAcAcAdAcAcAcAcAcAcAcAcAcAcAcAdBdA,cAcAcAcCcCcCcCcCcCcCcCcCcCdBdBdBdBeBeBeBeBeBeBbBcCcCcCcCcCcCcCcCcCcAcAcAcAcAcAbBbBbBbBbBbBbBbBcCdCdCdCdCcCcCcCcCcCcCcCcCcCcAcAcAcAcAcAdCdCdCdCeBeBeBeB,cAcAcAdBcAcBcCcCcCcCdBdBcCcCcCdBdBdBdBdBdBdBdBcCcCcCcCcCcAcAcAcAcAcAcAcCcCcCcCcCcCcCcCcCcCcAcAcAcAcAcCcCcCcCcCcCcCcCcCcCcC,cAcAcAcAcAcAeBeBeBeBeBdBdBdBdBdBdBdBdBdBdBdBcAdAcAcAcAcAcCcCcCeBeBeBeBeBeBdCdCdCdCdCdCdCdCdCdCdCeBeBeBcAcAcAcAcAcAcAcAcAcAdBdBdBdBeBeBeB
D92,devprop,F01,famous,B,30,6089,FALSE,s011,x,dBdBdBdBdBdBdBdBdBcAcAcAcAcAcAdBdBdBdBdBdBdBdBdBdBcAcAcAcAcAcAcAcCcCcCcCcCcCcCcCcCdBdBdBdBdBdBdBdBcAcAcAcAcAcAcAcAcAcAcAcAcAbBaBaBaBaBaBaBaBbBcBcBcBcBcBcBcCcCcCcCcCcCcCdBdBdBdBdBdBdBdBdB,cCcCbBcBcBcBcBcAdAdAdAdAdAdAdAdAdAdAdAdCdCdCdCdCdCdCdCdCdCdCdCdCdCdCdCdCdBdBdBdBdBdBdBdBdBdBdBdBdBdBdBdBeBdBeBdBdCdCdCdCdCdCdCdCdCdCdCdCdCdCdCdCdCdCcAcBcAcAcAbBbBbBbBbBbBbBbBdBdBdBdBdBdBdBdBdBdB,x,x,dBdBdBdBdBcBcBcBcBcBcBeBeBeBeBeBeBeBcBcBcBcBcBcCcCcCcC,dBdBdBdBdBeBeBeBeBeBcBcBcBcCcCcCcCcCcCcCcCdBdBdBdBdBdBdBdBdBdBcAdAdAeBeBdBdBdBdBdBcBcBcBcBcAcAcAcAcAcAcAcAbBbBbBbBbBbBaBcBdBdBdBdBdBeBeBeBeBeBeBeBeBeBeBdCdCdCdCdCdCdCdCdCdCdBdBdBdBdBdBdBdBdBdB,dBdBdBdBdBcBcBcBcBcAcAcAcAcAcAcAcCcCcCcCcCcCcCcCcCcCdBdBdBdBeBdBdBdBdBeBcBcBcBcBcBcCcCcCcCcCcCcCcAcAcAcAcAcAcAcCcCcCcCcCcCcCcCdBdBdBdBdBdBdBcBcBcBcBcCcCcCcCcCcAcAcAcAcAcAcA,x,fBfBfBfBeBeBeBeBeBeBdBdBdBdBdBdB,cCdCdCdCdCdBdBdBdBdBdBeBeBeBeBeBeBdBdBdBdBdCdCdCdCdCcCcCcCcCfB,x,cAcAcAcAcAcAcAcAcAcAdAcAcAcAcAcAcAcAcAcAcAcAdBdA,cAcAcAcCcCcCcCcCcCcCcCcCcCdBdBdBdBeBeBeBeBeBeBbBcCcCcCcCcCcCcCcCcCcAcAcAcAcAcAbBbBbBbBbBbBbBbBcCdCdCdCdCcCcCcCcCcCcCcCcCcCcAcAcAcAcAcAdCdCdCdCeBeBeBeB,cAcAcAdBcAcBcCcCcCcCdBdBcCcCcCdBdBdBdBdBdBdBdBcCcCcCcCcCcAcAcAcAcAcAcAcCcCcCcCcCcCcCcCcCcCcAcAcAcAcAcCcCcCcCcCcCcCcCcCcCcC,cAcAcAcAcAcAeBeBeBeBeBdBdBdBdBdBdBdBdBdBdBdBcAdAcAcAcAcAcCcCcCeBeBeBeBeBeBdCdCdCdCdCdCdCdCdCdCdCeBeBeBcAcAcAcAcAcAcAcAcAcAdBdBdBdBeBeBeB
D93,devprop,F01,famous,B,20,1413,TRUE,s012,cAcAcAcAcAcAcAcAcAcAdAcAcAcAcAcAcAcAcAcAcAcAdBdA,dBdBdBdBdBdBdBdBdBcAcAcAcAcAcAdBdBdBdBdBdBdBdBdBdBcAcAcAcAcAcAcAcCcCcCcCcCcCcCcCcCdBdBdBdBdBdBdBdBcAcAcAcAcAcAcAcAcAcAcAcAcAbBaBaBaBaBaBaBaBbBcBcBcBcBcBcBcCcCcCcCcCcCcCdBdBdBdBdBdBdBdBdB,cCcCbBcBcBcBcBcAdAdAdAdAdAdAdAdAdAdAdAdCdCdCdCdCdCdCdCdCdCdCdCdCdCdCdCdCdBdBdBdBdBdBdBdBdBdBdBdBdBdBdBdBeBdBeBdBdCdCdCdCdCdCdCdCdCdCdCdCdCdCdCdCdCdCcAcBcAcAcAbBbBbBbBbBbBbBbBdBdBdBdBdBdBdBdBdBdB,x,x,dBdBdBdBdBcBcBcBcBcBcBeBeBeBeBeBeBeBcBcBcBcBcBcCcCcCcC,dBdBdBdBdBeBeBeBeBeBcBcBcBcCcCcCcCcCcCcCcCdBdBdBdBdBdBdBdBdBdBcAdAdAeBeBdBdBdBdBdBcBcBcBcBcAcAcAcAcAcAcAcAbBbBbBbBbBbBaBcBdBdBdBdBdBeBeBeBeBeBeBeBeBeBeBdCdCdCdCdCdCdCdCdCdCdBdBdBdBdBdBdBdBdBdB,dBdBdBdBdBcBcBcBcBcAcAcAcAcAcAcAcCcCcCcCcCcCcCcCcCcCdBdBdBdBeBdBdBdBdBeBcBcBcBcBcBcCcCcCcCcCcCcCcAcAcAcAcAcAcAcCcCcCcCcCcCcCcCdBdBdBdBdBdBdBcBcBcBcBcCcCcCcCcCcAcAcAcAcAcAcA,x,fBfBfBfBeBeBeBeBeBeBdBdBdBdBdBdB,cCdCdCdCdCdBdBdBdBdBdBeBeBeBeBeBeBdBdBdBdBdCdCdCdCdCcCcCcCcCfB,x,x,cAcAcAcCcCcCcCcCcCcCcCcCcCdBdBdBdBeBeBeBeBeBeBbBcCcCcCcCcCcCcCcCcCcAcAcAcAcAcAbBbBbBbBbBbBbBbBcCdCdCdCdCcCcCcCcCcCcCcCcCcCcAcAcAcAcAcAdCdCdCdCeBeBeBeB,cAcAcAdBcAcBcCcCcCcCdBdBcCcCcCdBdBdBdBdBdBdBdBcCcCcCcCcCcAcAcAcAcAcAcAcCcCcCcCcCcCcCcCcCcCcAcAcAcAcAcCcCcCcCcCcCcCcCcCcCcC,cAcAcAcAcAcAeBeBeBeBeBdBdBdBdBdBdBdBdBdBdBdBcAdAcAcAcAcAcCcCcCeBeBeBeBeBeBdCdCdCdCdCdCdCdCdCdCdCeBeBeBcAcAcAcAcAcAcAcAcAcAdBdBdBdBeBeBeB
D94,devprop,F01,famous,B,58,3715,TRUE,s013,cAcAcAcCcCcCcCcCcCcCcCcCcCdBdBdBdBeBeBeBeBeBeBbBcCcCcCcCcCcCcCcCcCcAcAcAcAcAcAbBbBbBbBbBbBbBbBcCdCdCdCdCcCcCcCcCcCcCcCcCcCcAcAcAcAcAcAdCdCdCdCeBeBeBeB,dBdBdBdBdBdBdBdBdBcAcAcAcAcAcAdBdBdBdBdBdBdBdBdBdBcAcAcAcAcAcAcAcCcCcCcCcCcCcCcCcCdBdBdBdBdBdBdBdBcAcAcAcAcAcAcAcAcAcAcAcAcAbBaBaBaBaBaBaBaBbBcBcBcBcBcBcBcCcCcCcCcCcCcCdBdBdBdBdBdBdBdBdB,cCcCbBcBcBcBcBcAdAdAdAdAdAdAdAdAdAdAdAdCdCdCdCdCdCdCdCdCdCdCdCdCdCdCdCdCdBdBdBdBdBdBdBdBdBdBdBdBdBdBdBdBeBdBeBdBdCdCdCdCdCdCdCdCdCdCdCdCdCdCdCdCdCdCcAcBcAcAcAbBbBbBbBbBbBbBbBdBdBdBdBdBdBdBdBdBdB,x,x,dBdBdBdBdBcBcBcBcBcBcBeBeBeBeBeBeBeBcBcBcBcBcBcCcCcCcC,dBdBdBdBdBeBeBeBeBeBcBcBcBcCcCcCcCcCcCcCcCdBdBdBdBdBdBdBdBdBdBcAdAdAeBeBdBdBdBdBdBcBcBcBcBcAcAcAcAcAcAcAcAbBbBbBbBbBbBaBcBdBdBdBdBdBeBeBeBeBeBeBeBeBeBeBdCdCdCdCdCdCdCdCdCdCdBdBdBdBdBdBdBdBdBdB,dBdBdBdBdBcBcBcBcBcAcAcAcAcAcAcAcCcCcCcCcCcCcCcCcCcCdBdBdBdBeBdBdBdBdBeBcBcBcBcBcBcCcCcCcCcCcCcCcAcAcAcAcAcAcAcCcCcCcCcCcCcCcCdBdBdBdBdBdBdBcBcBcBcBcCcCcCcCcCcAcAcAcAcAcAcA,x,fBfBfBfBeBeBeBeBeBeBdBdBdBdBdBdB,cCdCdCdCdCdBdBdBdBdBdBeBeBeBeBeBeBdBdBdBdBdCdCdCdCdCcCcCcCcCfB,x,cAcAcAcAcAcAcAcAcAcAdAcAcAcAcAcAcAcAcAcAcAcAdBdA,x,cAcAcAdBcAcBcCcCcCcCdBdBcCcCcCdBdBdBdBdBdBdBdBcCcCcCcCcCcAcAcAcAcAcAcAcCcCcCcCcCcCcCcCcCcCcAcAcAcAcAcCcCcCcCcCcCcCcCcCcCcC,cAcAcAcAcAcAeBeBeBeBeBdBdBdBdBdBdBdBdBdBdBdBcAdAcAcAcAcAcCcCcCeBeBeBeBeBeBdCdCdCdCdCdCdCdCdCdCdCeBeBeBcAcAcAcAcAcAcAcAcAcAdBdBdBdBeBeBeB
D95,devprop,F01,famous,B,73,3004,TRUE,s014,cAcAcAdBcAcBcCcCcCcCdBdBcCcCcCdBdBdBdBdBdBdBdBcCcCcCcCcCcAcAcAcAcAcAcAcCcCcCcCcCcCcCcCcCcCcAcAcAcAcAcCcCcCcCcCcCcCcCcCcCcC,dBdBdBdBdBdBdBdBdBcAcAcAcAcAcAdBdBdBdBdBdBdBdBdBdBcAcAcAcAcAcAcAcCcCcCcCcCcCcCcCcCdBdBdBdBdBdBdBdBcAcAcAcAcAcAcAcAcAcAcAcAcAbBaBaBaBaBaBaBaBbBcBcBcBcBcBcBcCcCcCcCcCcCcCdBdBdBdBdBdBdBdBdB,cCcCbBcBcBcBcBcAdAdAdAdAdAdAdAdAdAdAdAdCdCdCdCdCdCdCdCdCdCdCdCdCdCdCdCdCdBdBdBdBdBdBdBdBdBdBdBdBdBdBdBdBeBdBeBdBdCdCdCdCdCdCdCdCdCdCdCdCdCdCdCdCdCdCcAcBcAcAcAbBbBbBbBbBbBbBbBdBdBdBdBdBdBdBdBdBdB,x,x,dBdBdBdBdBcBcBcBcBcBcBeBeBeBeBeBeBeBcBcBcBcBcBcCcCcCcC,dBdBdBdBdBeBeBeBeBeBcBcBcBcCcCcCcCcCcCcCcCdBdBdBdBdBdBdBdBdBdBcAdAdAeBeBdBdBdBdBdBcBcBcBcBcAcAcAcAcAcAcAcAbBbBbBbBbBbBaBcBdBdBdBdBdBeBeBeBeBeBeBeBeBeBeBdCdCdCdCdCdCdCdCdCdCdBdBdBdBdBdBdBdBdBdB,dBdBdBdBdBcBcBcBcBcAcAcAcAcAcAcAcCcCcCcCcCcCcCcCcCcCdBdBdBdBeBdBdBdBdBeBcBcBcBcBcBcCcCcCcCcCcCcCcAcAcAcAcAcAcAcCcCcCcCcCcCcCcCdBdBdBdBdBdBdBcBcBcBcBcCcCcCcCcCcAcAcAcAcAcAcA,x,fBfBfBfBeBeBeBeBeBeBdBdBdBdBdBdB,cCdCdCdCdCdBdBdBdBdBdBeBeBeBeBeBeBdBdBdBdBdCdCdCdCdCcCcCcCcCfB,x,cAcAcAcAcAcAcAcAcAcAdAcAcAcAcAcAcAcAcAcAcAcAdBdA,cAcAcAcCcCcCcCcCcCcCcCcCcCdBdBdBdBeBeBeBeBeBeBbBcCcCcCcCcCcCcCcCcCcAcAcAcAcAcAbBbBbBbBbBbBbBbBcCdCdCdCdCcCcCcCcCcCcCcCcCcCcAcAcAcAcAcAdCdCdCdCeBeBeBeB,x,cAcAcAcAcAcAeBeBeBeBeBdBdBdBdBdBdBdBdBdBdBdBcAdAcAcAcAcAcCcCcCeBeBeBeBeBeBdCdCdCdCdCdCdCdCdCdCdCeBeBeBcAcAcAcAcAcAcAcAcAcAdBdBdBdBeBeBeB
D96,devprop,F01,famous,B,85,3607,TRUE,s015,cAcAcAcAcAcAeBeBeBeBeBdBdBdBdBdBdBdBdBdBdBdBcAdAcAcAcAcAcCcCcCeBeBeBeBeBeBdCdCdCdCdCdCdCdCdCdCdCeBeBeBcAcAcAcAcAcAcAcAcAcAdBdBdBdBeBeBeB,dBdBdBdBdBdBdBdBdBcAcAcAcAcAcAdBdBdBdBdBdBdBdBdBdBcAcAcAcAcAcAcAcCcCcCcCcCcCcCcCcCdBdBdBdBdBdBdBdBcAcAcAcAcAcAcAcAcAcAcAcAcAbBaBaBaBaBaBaBaBbBcBcBcBcBcBcBcCcCcCcCcCcCcCdBdBdBdBdBdBdBdBdB,cCcCbBcBcBcBcBcAdAdAdAdAdAdAdAdAdAdAdAdCdCdCdCdCdCdCdCdCdCdCdCdCdCdCdCdCdBdBdBdBdBdBdBdBdBdBdBdBdBdBdBdBeBdBeBdBdCdCdCdCdCdCdCdCdCdCdCdCdCdCdCdCdCdCcAcBcAcAcAbBbBbBbBbBbBbBbBdBdBdBdBdBdBdBdBdBdB,x,x,dBdBdBdBdBcBcBcBcBcBcBeBeBeBeBeBeBeBcBcBcBcBcBcCcCcCcC,dBdBdBdBdBeBeBeBeBeBcBcBcBcCcCcCcCcCcCcCcCdBdBdBdBdBdBdBdBdBdBcAdAdAeBeBdBdBdBdBdBcBcBcBcBcAcAcAcAcAcAcAcAbBbBbBbBbBbBaBcBdBdBdBdBdBeBeBeBeBeBeBeBeBeBeBdCdCdCdCdCdCdCdCdCdCdBdBdBdBdBdBdBdBdBdB,dBdBdBdBdBcBcBcBcBcAcAcAcAcAcAcAcCcCcCcCcCcCcCcCcCcCdBdBdBdBeBdBdBdBdBeBcBcBcBcBcBcCcCcCcCcCcCcCcAcAcAcAcAcAcAcCcCcCcCcCcCcCcCdBdBdBdBdBdBdBcBcBcBcBcCcCcCcCcCcAcAcAcAcAcAcA,x,fBfBfBfBeBeBeBeBeBeBdBdBdBdBdBdB,cCdCdCdCdCdBdBdBdBdBdBeBeBeBeBeBeBdBdBdBdBdCdCdCdCdCcCcCcCcCfB,x,cAcAcAcAcAcAcAcAcAcAdAcAcAcAcAcAcAcAcAcAcAcAdBdA,cAcAcAcCcCcCcCcCcCcCcCcCcCdBdBdBdBeBeBeBeBeBeBbBcCcCcCcCcCcCcCcCcCcAcAcAcAcAcAbBbBbBbBbBbBbBbBcCdCdCdCdCcCcCcCcCcCcCcCcCcCcAcAcAcAcAcAdCdCdCdCeBeBeBeB,cAcAcAdBcAcBcCcCcCcCdBdBcCcCcCdBdBdBdBdBdBdBdBcCcCcCcCcCcAcAcAcAcAcAcAcCcCcCcCcCcCcCcCcCcCcAcAcAcAcAcCcCcCcCcCcCcCcCcCcCcC,x
D06,devprop,F01,famous,C,1,2603,FALSE,s001,x,x,x,x,x,dBcBcBcBcBdBdBeBeBeBeBeBeBeBeBcAcAcAcAcAcCcCcCcCcCcCeBeBeBeBeBeBeBeBeBcAcAcAcAcAcAcAcAcAcA,x,bBbBbBcAcBcBcBdBdBdBdBdBdBcBcBcBcBcCcCcCcCcCcCcAcAcAcAcAdBdBdBdBdBcBcBcBcCcCcCcCbBcAcAcAcAcAcAcAcCcCcCcCcCdBdBdB,x,dAdAdAeBeBeBeBeBeBeBeBeB,cBcBcBcBcBcBcBdBdBdBeBeBeBeBcAcAcAcAcAcAcAcAcCcCcCcCcCcCcCcCeBeBeBeBeBeBeBeBeBeBeBeBdBdBdBdBdBdBdBcCcCcCcCcCcCcCcCcCcCcCcCcCcCdAdAdAdAdAdAeBeBeBeBeBeBeBeBeBeBeBeB,cBcBcBcBdBdBdBdBdBdBdBdBdBdBdBcAcAcAcAcA,cAcAcAcAcAcAcAcAcAcAcAcAcAcAcBcBcBcB,cAcAcAcCcCcCcCcCcCdBdBdBdBdBeBeBeBeBeBdCcCcCcCcCcCcAcAcAcAcAcAcAcCcCcCcCcCcCcCcC,x,bBbBcAcAcAcAeBeBeBeBeBdAdAdAdAdAdAeBeBeBeBeBdBdBdBdBdBdBdBdBdAdAdAdAdAdAdAcAcBcBcBcBcBbBbBbBbBbBdAeBeBeBeBeBeBeBeBeBcBcBcBcBcBcBcCcCcCcCcBdAdAdAdAdAdAeBeBeBeBeBeBdBdBdBdBdBdBdB
D08,devprop,F01,famous,C,109,1835,FALSE,s002,x,x,x,x,x,dBcBcBcBcBdBdBeBeBeBeBeBeBeBeBcAcAcAcAcAcCcCcCcCcCcCeBeBeBeBeBeBeBeBeBcAcAcAcAcAcAcAcAcAcA,x,bBbBbBcAcBcBcBdBdBdBdBdBdBcBcBcBcBcCcCcCcCcCcCcAcAcAcAcAdBdBdBdBdBcBcBcBcCcCcCcCbBcAcAcAcAcAcAcAcCcCcCcCcCdBdBdB,x,dAdAdAeBeBeBeBeBeBeBeBeB,cBcBcBcBcBcBcBdBdBdBeBeBeBeBcAcAcAcAcAcAcAcAcCcCcCcCcCcCcCcCeBeBeBeBeBeBeBeBeBeBeBeBdBdBdBdBdBdBdBcCcCcCcCcCcCcCcCcCcCcCcCcCcCdAdAdAdAdAdAeBeBeBeBeBeBeBeBeBeBeBeB,cBcBcBcBdBdBdBdBdBdBdBdBdBdBdBcAcAcAcAcA,cAcAcAcAcAcAcAcAcAcAcAcAcAcAcBcBcBcB,cAcAcAcCcCcCcCcCcCdBdBdBdBdBeBeBeBeBeBdCcCcCcCcCcCcAcAcAcAcAcAcAcCcCcCcCcCcCcCcC,x,bBbBcAcAcAcAeBeBeBeBeBdAdAdAdAdAdAeBeBeBeBeBdBdBdBdBdBdBdBdBdAdAdAdAdAdAdAcAcBcBcBcBcBbBbBbBbBbBdAeBeBeBeBeBeBeBeBeBcBcBcBcBcBcBcCcCcCcCcBdAdAdAdAdAdAeBeBeBeBeBeBdBdBdBdBdBdBdB
D13,devprop,F01,famous,C,23,3463,FALSE,s003,x,x,x,x,x,dBcBcBcBcBdBdBeBeBeBeBeBeBeBeBcAcAcAcAcAcCcCcCcCcCcCeBeBeBeBeBeBeBeBeBcAcAcAcAcAcAcAcAcAcA,x,bBbBbBcAcBcBcBdBdBdBdBdBdBcBcBcBcBcCcCcCcCcCcCcAcAcAcAcAdBdBdBdBdBcBcBcBcCcCcCcCbBcAcAcAcAcAcAcAcCcCcCcCcCdBdBdB,x,dAdAdAeBeBeBeBeBeBeBeBeB,cBcBcBcBcBcBcBdBdBdBeBeBeBeBcAcAcAcAcAcAcAcAcCcCcCcCcCcCcCcCeBeBeBeBeBeBeBeBeBeBeBeBdBdBdBdBdBdBdBcCcCcCcCcCcCcCcCcCcCcCcCcCcCdAdAdAdAdAdAeBeBeBeBeBeBeBeBeBeBeBeB,cBcBcBcBdBdBdBdBdBdBdBdBdBdBdBcAcAcAcAcA,cAcAcAcAcAcAcAcAcAcAcAcAcAcAcBcBcBcB,cAcAcAcCcCcCcCcCcCdBdBdBdBdBeBeBeBeBeBdCcCcCcCcCcCcAcAcAcAcAcAcAcCcCcCcCcCcCcCcC,x,bBbBcAcAcAcAeBeBeBeBeBdAdAdAdAdAdAeBeBeBeBeBdBdBdBdBdBdBdBdBdAdAdAdAdAdAdAcAcBcBcBcBcBbBbBbBbBbBdAeBeBeBeBeBeBeBeBeBcBcBcBcBcBcBcCcCcCcCcBdAdAdAdAdAdAeBeBeBeBeBeBdBdBdBdBdBdBdB
D14,devprop,F01,famous,C,16,3165,FALSE,s004,x,x,x,x,x,dBcBcBcBcBdBdBeBeBeBeBeBeBeBeBcAcAcAcAcAcCcCcCcCcCcCeBeBeBeBeBeBeBeBeBcAcAcAcAcAcAcAcAcAcA,x,bBbBbBcAcBcBcBdBdBdBdBdBdBcBcBcBcBcCcCcCcCcCcCcAcAcAcAcAdBdBdBdBdBcBcBcBcCcCcCcCbBcAcAcAcAcAcAcAcCcCcCcCcCdBdBdB,x,dAdAdAeBeBeBeBeBeBeBeBeB,cBcBcBcBcBcBcBdBdBdBeBeBeBeBcAcAcAcAcAcAcAcAcCcCcCcCcCcCcCcCeBeBeBeBeBeBeBeBeBeBeBeBdBdBdBdBdBdBdBcCcCcCcCcCcCcCcCcCcCcCcCcCcCdAdAdAdAdAdAeBeBeBeBeBeBeBeBeBeBeBeB,cBcBcBcBdBdBdBdBdBdBdBdBdBdBdBcAcAcAcAcA,cAcAcAcAcAcAcAcAcAcAcAcAcAcAcBcBcBcB,cAcAcAcCcCcCcCcCcCdBdBdBdBdBeBeBeBeBeBdCcCcCcCcCcCcAcAcAcAcAcAcAcCcCcCcCcCcCcCcC,x,bBbBcAcAcAcAeBeBeBeBeBdAdAdAdAdAdAeBeBeBeBeBdBdBdBdBdBdBdBdBdAdAdAdAdAdAdAcAcBcBcBcBcBbBbBbBbBbBdAeBeBeBeBeBeBeBeBeBcBcBcBcBcBcBcCcCcCcCcBdAdAdAdAdAdAeBeBeBeBeBeBdBdBdBdBdBdBdB
D15,devprop,F01,famous,C,45,2441,TRUE,s005,dBcBcBcBcBdBdBeBeBeBeBeBeBeBeBcAcAcAcAcAcCcCcCcCcCcCeBeBeBeBeBeBeBeBeBcAcAcAcAcAcAcAcAcAcA,x,x,x,x,x,x,bBbBbBcAcBcBcBdBdBdBdBdBdBcBcBcBcBcCcCcCcCcCcCcAcAcAcAcAdBdBdBdBdBcBcBcBcCcCcCcCbBcAcAcAcAcAcAcAcCcCcCcCcCdBdBdB,x,dAdAdAeBeBeBeBeBeBeBeBeB,cBcBcBcBcBcBcBdBdBdBeBeBeBeBcAcAcAcAcAcAcAcAcCcCcCcCcCcCcCcCeBeBeBeBeBeBeBeBeBeBeBeBdBdBdBdBdBdBdBcCcCcCcCcCcCcCcCcCcCcCcCcCcCdAdAdAdAdAdAeBeBeBeBeBeBeBeBeBeBeBeB,cBcBcBcBdBdBdBdBdBdBdBdBdBdBdBcAcAcAcAcA,cAcAcAcAcAcAcAcAcAcAcAcAcAcAcBcBcBcB,cAcAcAcCcCcCcCcCcCdBdBdBdBdBeBeBeBeBeBdCcCcCcCcCcCcAcAcAcAcAcAcAcCcCcCcCcCcCcCcC,x,bBbBcAcAcAcAeBeBeBeBeBdAdAdAdAdAdAeBeBeBeBeBdBdBdBdBdBdBdBdBdAdAdAdAdAdAdAcAcBcBcBcBcBbBbBbBbBbBdAeBeBeBeBeBeBeBeBeBcBcBcBcBcBcBcCcCcCcCcBdAdAdAdAdAdAeBeBeBeBeBeBdBdBdBdBdBdBdB
D16,devprop,F01,famous,C,53,4745,FALSE,s006,x,x,x,x,x,dBcBcBcBcBdBdBeBeBeBeBeBeBeBeBcAcAcAcAcAcCcCcCcCcCcCeBeBeBeBeBeBeBeBeBcAcAcAcAcAcAcAcAcAcA,x,bBbBbBcAcBcBcBdBdBdBdBdBdBcBcBcBcBcCcCcCcCcCcCcAcAcAcAcAdBdBdBdBdBcBcBcBcCcCcCcCbBcAcAcAcAcAcAcAcCcCcCcCcCdBdBdB,x,dAdAdAeBeBeBeBeBeBeBeBeB,cBcBcBcBcBcBcBdBdBdBeBeBeBeBcAcAcAcAcAcAcAcAcCcCcCcCcCcCcCcCeBeBeBeBeBeBeBeBeBeBeBeBdBdBdBdBdBdBdBcCcCcCcCcCcCcCcCcCcCcCcCcCcCdAdAdAdAdAdAeBeBeBeBeBeBeBeBeBeBeBeB,cBcBcBcBdBdBdBdBdBdBdBdBdBdBdBcAcAcAcAcA,cAcAcAcAcAcAcAcAcAcAcAcAcAcAcBcBcBcB,cAcAcAcCcCcCcCcCcCdBdBdBdBdBeBeBeBeBeBdCcCcCcCcCcCcAcAcAcAcAcAcAcCcCcCcCcCcCcCcC,x,bBbBcAcAcAcAeBeBeBeBeBdAdAdAdAdAdAeBeBeBeBeBdBdBdBdBdBdBdBdBdAdAdAdAdAdAdAcAcBcBcBcBcBbBbBbBbBbBdAeBeBeBeBeBeBeBeBeBcBcBcBcBcBcBcCcCcCcCcBdAdAdAdAdAdAeBeBeBeBeBeBdBdBdBdBdBdBdB
D17,devprop,F01,famous,C,11,3039,TRUE,s007,bBbBbBcAcBcBcBdBdBdBdBdBdBcBcBcBcBcCcCcCcCcCcCcAcAcAcAcAdBdBdBdBdBcBcBcBcCcCcCcCbBcAcAcAcAcAcAcAcCcCcCcCcCdBdBdB,x,x,x,x,dBcBcBcBcBdBdBeBeBeBeBeBeBeBeBcAcAcAcAcAcCcCcCcCcCcCeBeBeBeBeBeBeBeBeBcAcAcAcAcAcAcAcAcAcA,x,x,x,dAdAdAeBeBeBeBeBeBeBeBeB,cBcBcBcBcBcBcBdBdBdBeBeBeBeBcAcAcAcAcAcAcAcAcCcCcCcCcCcCcCcCeBeBeBeBeBeBeBeBeBeBeBeBdBdBdBdBdBdBdBcCcCcCcCcCcCcCcCcCcCcCcCcCcCdAdAdAdAdAdAeBeBeBeBeBeBeBeBeBeBeBeB,cBcBcBcBdBdBdBdBdBdBdBdBdBdBdBcAcAcAcAcA,cAcAcAcAcAcAcAcAcAcAcAcAcAcAcBcBcBcB,cAcAcAcCcCcCcCcCcCdBdBdBdBdBeBeBeBeBeBdCcCcCcCcCcCcAcAcAcAcAcAcAcCcCcCcCcCcCcCcC,x,bBbBcAcAcAcAeBeBeBeBeBdAdAdAdAdAdAeBeBeBeBeBdBdBdBdBdBdBdBdBdAdAdAdAdAdAdAcAcBcBcBcBcBbBbBbBbBbBdAeBeBeBeBeBeBeBeBeBcBcBcBcBcBcBcCcCcCcCcBdAdAdAdAdAdAeBeBeBeBeBeBdBdBdBdBdBdBdB
D18,devprop,F01,famous,C,91,2656,FALSE,s008,x,x,x,x,x,dBcBcBcBcBdBdBeBeBeBeBeBeBeBeBcAcAcAcAcAcCcCcCcCcCcCeBeBeBeBeBeBeBeBeBcAcAcAcAcAcAcAcAcAcA,x,bBbBbBcAcBcBcBdBdBdBdBdBdBcBcBcBcBcCcCcCcCcCcCcAcAcAcAcAdBdBdBdBdBcBcBcBcCcCcCcCbBcAcAcAcAcAcAcAcCcCcCcCcCdBdBdB,x,dAdAdAeBeBeBeBeBeBeBeBeB,cBcBcBcBcBcBcBdBdBdBeBeBeBeBcAcAcAcAcAcAcAcAcCcCcCcCcCcCcCcCeBeBeBeBeBeBeBeBeBeBeBeBdBdBdBdBdBdBdBcCcCcCcCcCcCcCcCcCcCcCcCcCcCdAdAdAdAdAdAeBeBeBeBeBeBeBeBeBeBeBeB,cBcBcBcBdBdBdBdBdBdBdBdBdBdBdBcAcAcAcAcA,cAcAcAcAcAcAcAcAcAcAcAcAcAcAcBcBcBcB,cAcAcAcCcCcCcCcCcCdBdBdBdBdBeBeBeBeBeBdCcCcCcCcCcCcAcAcAcAcAcAcAcCcCcCcCcCcCcCcC,x,bBbBcAcAcAcAeBeBeBeBeBdAdAdAdAdAdAeBeBeBeBeBdBdBdBdBdBdBdBdBdAdAdAdAdAdAdAcAcBcBcBcBcBbBbBbBbBbBdAeBeBeBeBeBeBeBeBeBcBcBcBcBcBcBcCcCcCcCcBdAdAdAdAdAdAeBeBeBeBeBeBdBdBdBdBdBdBdB
D90,devprop,F01,famous,C,110,822,TRUE,s009,dAdAdAeBeBeBeBeBeBeBeBeB,x,x,x,x,dBcBcBcBcBdBdBeBeBeBeBeBeBeBeBcAcAcAcAcAcCcCcCcCcCcCeBeBeBeBeBeBeBeBeBcAcAcAcAcAcAcAcAcAcA,x,bBbBbBcAcBcBcBdBdBdBdBdBdBcBcBcBcBcCcCcCcCcCcCcAcAcAcAcAdBdBdBdBdBcBcBcBcCcCcCcCbBcAcAcAcAcAcAcAcCcCcCcCcCdBdBdB,x,x,cBcBcBcBcBcBcBdBdBdBeBeBeBeBcAcAcAcAcAcAcAcAcCcCcCcCcCcCcCcCeBeBeBeBeBeBeBeBeBeBeBeBdBdBdBdBdBdBdBcCcCcCcCcCcCcCcCcCcCcCcCcCcCdAdAdAdAdAdAeBeBeBeBeBeBeBeBeBeBeBeB,cBcBcBcBdBdBdBdBdBdBdBdBdBdBdBcAcAcAcAcA,cAcAcAcAcAcAcAcAcAcAcAcAcAcAcBcBcBcB,cAcAcAcCcCcCcCcCcCdBdBdBdBdBeBeBeBeBeBdCcCcCcCcCcCcAcAcAcAcAcAcAcCcCcCcCcCcCcCcC,x,bBbBcAcAcAcAeBeBeBeBeBdAdAdAdAdAdAeBeBeBeBeBdBdBdBdBdBdBdBdBdAdAdAdAdAdAdAcAcBcBcBcBcBbBbBbBbBbBdAeBeBeBeBeBeBeBeBeBcBcBcBcBcBcBcCcCcCcCcBdAdAdAdAdAdAeBeBeBeBeBeBdBdBdBdBdBdBdB
D91,devprop,F01,famous,C,62,4021,TRUE,s010,cBcBcBcBcBcBcBdBdBdBeBeBeBeBcAcAcAcAcAcAcAcAcCcCcCcCcCcCcCcCeBeBeBeBeBeBeBeBeBeBeBeBdBdBdBdBdBdBdBcCcCcCcCcCcCcCcCcCcCcCcCcCcCdAdAdAdAdAdAeBeBeBeBeBeBeBeBeBeBeBeB,x,x,x,x,dBcBcBcBcBdBdBeBeBeBeBeBeBeBeBcAcAcAcAcAcCcCcCcCcCcCeBeBeBeBeBeBeBeBeBcAcAcAcAcAcAcAcAcAcA,x,bBbBbBcAcBcBcBdBdBdBdBdBdBcBcBcBcBcCcCcCcCcCcCcAcAcAcAcAdBdBdBdBdBcBcBcBcCcCcCcCbBcAcAcAcAcAcAcAcCcCcCcCcCdBdBdB,x,dAdAdAeBeBeBeBeBeBeBeBeB,x,cBcBcBcBdBdBdBdBdBdBdBdBdBdBdBcAcAcAcAcA,cAcAcAcAcAcAcAcAcAcAcAcAcAcAcBcBcBcB,cAcAcAcCcCcCcCcCcCdBdBdBdBdBeBeBeBeBeBdCcCcCcCcCcCcAcAcAcAcAcAcAcCcCcCcCcCcCcCcC,x,bBbBcAcAcAcAeBeBeBeBeBdAdAdAdAdAdAeBeBeBeBeBdBdBdBdBdBdBdBdBdAdAdAdAdAdAdAcAcBcBcBcBcBbBbBbBbBbBdAeBeBeBeBeBeBeBeBeBcBcBcBcBcBcBcCcCcCcCcBdAdAdAdAdAdAeBeBeBeBeBeBdBdBdBdBdBdBdB
D92,devprop,F01,famous,C,153,1173,TRUE,s011,cBcBcBcBdBdBdBdBdBdBdBdBdBdBdBcAcAcAcAcA,x,x,x,x,dBcBcBcBcBdBdBeBeBeBeBeBeBeBeBcAcAcAcAcAcCcCcCcCcCcCeBeBeBeBeBeBeBeBeBcAcAcAcAcAcAcAcAcAcA,x,bBbBbBcAcBcBcBdBdBdBdBdBdBcBcBcBcBcCcCcCcCcCcCcAcAcAcAcAdBdBdBdBdBcBcBcBcCcCcCcCbBcAcAcAcAcAcAcAcCcCcCcCcCdBdBdB,x,dAdAdAeBeBeBeBeBeBeBeBeB,cBcBcBcBcBcBcBdBdBdBeBeBeBeBcAcAcAcAcAcAcAcAcCcCcCcCcCcCcCcCeBeBeBeBeBeBeBeBeBeBeBeBdBdBdBdBdBdBdBcCcCcCcCcCcCcCcCcCcCcCcCcCcCdAdAdAdAdAdAeBeBeBeBeBeBeBeBeBeBeBeB,x,cAcAcAcAcAcAcAcAcAcAcAcAcAcAcBcBcBcB,cAcAcAcCcCcCcCcCcCdBdBdBdBdBeBeBeBeBeBdCcCcCcCcCcCcAcAcAcAcAcAcAcCcCcCcCcCcCcCcC,x,bBbBcAcAcAcAeBeBeBeBeBdAdAdAdAdAdAeBeBeBeBeBdBdBdBdBdBdBdBdBdAdAdAdAdAdAdAcAcBcBcBcBcBbBbBbBbBbBdAeBeBeBeBeBeBeBeBeBcBcBcBcBcBcBcCcCcCcCcBdAdAdAdAdAdAeBeBeBeBeBeBdBdBdBdBdBdBdB
D93,devprop,F01,famous,C,129,1116,TRUE,s012,cAcAcAcAcAcAcAcAcAcAcAcAcAcAcBcBcBcB,x,x,x,x,dBcBcBcBcBdBdBeBeBeBeBeBeBeBeBcAcAcAcAcAcCcCcCcCcCcCeBeBeBeBeBeBeBeBeBcAcAcAcAcAcAcAcAcAcA,x,bBbBbBcAcBcBcBdBdBdBdBdBdBcBcBcBcBcCcCcCcCcCcCcAcAcAcAcAdBdBdBdBdBcBcBcBcCcCcCcCbBcAcAcAcAcAcAcAcCcCcCcCcCdBdBdB,x,dAdAdAeBeBeBeBeBeBeBeBeB,cBcBcBcBcBcBcBdBdBdBeBeBeBeBcAcAcAcAcAcAcAcAcCcCcCcCcCcCcCcCeBeBeBeBeBeBeBeBeBeBeBeBdBdBdBdBdBdBdBcCcCcCcCcCcCcCcCcCcCcCcCcCcCdAdAdAdAdAdAeBeBeBeBeBeBeBeBeBeBeBeB,cBcBcBcBdBdBdBdBdBdBdBdBdBdBdBcAcAcAcAcA,x,cAcAcAcCcCcCcCcCcCdBdBdBdBdBeBeBeBeBeBdCcCcCcCcCcCcAcAcAcAcAcAcAcCcCcCcCcCcCcCcC,x,bBbBcAcAcAcAeBeBeBeBeBdAdAdAdAdAdAeBeBeBeBeBdBdBdBdBdBdBdBdBdAdAdAdAdAdAdAcAcBcBcBcBcBbBbBbBbBbBdAeBeBeBeBeBeBeBeBeBcBcBcBcBcBcBcCcCcCcCcBdAdAdAdAdAdAeBeBeBeBeBeBdBdBdBdBdBdBdB
D94,devprop,F01,famous,C,111,1981,TRUE,s013,cAcAcAcCcCcCcCcCcCdBdBdBdBdBeBeBeBeBeBdCcCcCcCcCcCcAcAcAcAcAcAcAcCcCcCcCcCcCcCcC,x,x,x,x,dBcBcBcBcBdBdBeBeBeBeBeBeBeBeBcAcAcAcAcAcCcCcCcCcCcCeBeBeBeBeBeBeBeBeBcAcAcAcAcAcAcAcAcAcA,x,bBbBbBcAcBcBcBdBdBdBdBdBdBcBcBcBcBcCcCcCcCcCcCcAcAcAcAcAdBdBdBdBdBcBcBcBcCcCcCcCbBcAcAcAcAcAcAcAcCcCcCcCcCdBdBdB,x,dAdAdAeBeBeBeBeBeBeBeBeB,cBcBcBcBcBcBcBdBdBdBeBeBeBeBcAcAcAcAcAcAcAcAcCcCcCcCcCcCcCcCeBeBeBeBeBeBeBeBeBeBeBeBdBdBdBdBdBdBdBcCcCcCcCcCcCcCcCcCcCcCcCcCcCdAdAdAdAdAdAeBeBeBeBeBeBeBeBeBeBeBeB,cBcBcBcBdBdBdBdBdBdBdBdBdBdBdBcAcAcAcAcA,cAcAcAcAcAcAcAcAcAcAcAcAcAcAcBcBcBcB,x,x,bBbBcAcAcAcAeBeBeBeBeBdAdAdAdAdAdAeBeBeBeBeBdBdBdBdBdBdBdBdBdAdAdAdAdAdAdAcAcBcBcBcBcBbBbBbBbBbBdAeBeBeBeBeBeBeBeBeBcBcBcBcBcBcBcCcCcCcCcBdAdAdAdAdAdAeBeBeBeBeBeBdBdBdBdBdBdBdB
D95,devprop,F01,famous,C,76,1728,FALSE,s014,x,x,x,x,x,dBcBcBcBcBdBdBeBeBeBeBeBeBeBeBcAcAcAcAcAcCcCcCcCcCcCeBeBeBeBeBeBeBeBeBcAcAcAcAcAcAcAcAcAcA,x,bBbBbBcAcBcBcBdBdBdBdBdBdBcBcBcBcBcCcCcCcCcCcCcAcAcAcAcAdBdBdBdBdBcBcBcBcCcCcCcCbBcAcAcAcAcAcAcAcCcCcCcCcCdBdBdB,x,dAdAdAeBeBeBeBeBeBeBeBeB,cBcBcBcBcBcBcBdBdBdBeBeBeBeBcAcAcAcAcAcAcAcAcCcCcCcCcCcCcCcCeBeBeBeBeBeBeBeBeBeBeBeBdBdBdBdBdBdBdBcCcCcCcCcCcCcCcCcCcCcCcCcCcCdAdAdAdAdAdAeBeBeBeBeBeBeBeBeBeBeBeB,cBcBcBcBdBdBdBdBdBdBdBdBdBdBdBcAcAcAcAcA,cAcAcAcAcAcAcAcAcAcAcAcAcAcAcBcBcBcB,cAcAcAcCcCcCcCcCcCdBdBdBdBdBeBeBeBeBeBdCcCcCcCcCcCcAcAcAcAcAcAcAcCcCcCcCcCcCcCcC,x,bBbBcAcAcAcAeBeBeBeBeBdAdAdAdAdAdAeBeBeBeBeBdBdBdBdBdBdBdBdBdAdAdAdAdAdAdAcAcBcBcBcBcBbBbBbBbBbBdAeBeBeBeBeBeBeBeBeBcBcBcBcBcBcBcCcCcCcCcBdAdAdAdAdAdAeBeBeBeBeBeBdBdBdBdBdBdBdB
D96,devprop,F01,famous,C,5,4550,TRUE,s015,bBbBcAcAcAcAeBeBeBeBeBdAdAdAdAdAdAeBeBeBeBeBdBdBdBdBdBdBdBdBdAdAdAdAdAdAdAcAcBcBcBcBcBbBbBbBbBbBdAeBeBeBeBeBeBeBeBeBcBcBcBcBcBcBcCcCcCcCcBdAdAdAdAdAdAeBeBeBeBeBeBdBdBdBdBdBdBdB,x,x,x,x,dBcBcBcBcBdBdBeBeBeBeBeBeBeBeBcAcAcAcAcAcCcCcCcCcCcCeBeBeBeBeBeBeBeBeBcAcAcAcAcAcAcAcAcAcA,x,bBbBbBcAcBcBcBdBdBdBdBdBdBcBcBcBcBcCcCcCcCcCcCcAcAcAcAcAdBdBdBdBdBcBcBcBcCcCcCcCbBcAcAcAcAcAcAcAcCcCcCcCcCdBdBdB,x,dAdAdAeBeBeBeBeBeBeBeBeB,cBcBcBcBcBcBcBdBdBdBeBeBeBeBcAcAcAcAcAcAcAcAcCcCcCcCcCcCcCcCeBeBeBeBeBeBeBeBeBeBeBeBdBdBdBdBdBdBdBcCcCcCcCcCcCcCcCcCcCcCcCcCcCdAdAdAdAdAdAeBeBeBeBeBeBeBeBeBeBeBeB,cBcBcBcBdBdBdBdBdBdBdBdBdBdBdBcAcAcAcAcA,cAcAcAcAcAcAcAcAcAcAcAcAcAcAcBcBcBcB,cAcAcAcCcCcCcCcCcCdBdBdBdBdBeBeBeBeBeBdCcCcCcCcCcCcAcAcAcAcAcAcAcCcCcCcCcCcCcCcC,x,x
D06,devprop,F01,famous,D,94,3700,FALSE,s001,x,x,x,x,x,x,x,dBdBdBdBdBdBcAcAcAcAcAcAeBeBeBeBeBeBeBcAcAcAcAcAcBcBcCcCcCcCcCcCcCdBdBdBdBdBeBeBeBeBeBeBcAcAcAcAcA,x,eBeBeBeBeBeBeBeBeBeBeBeBeBdBdBdBdBdBdBdBdBdB,x,eBeBeBeBdBdBdBdBdBdBdBdBdBcCcCcCcCcC,cAcAcAcAcAcAcAcAcAdAeB,x,x,bBbBbBdBdBdBdBdBdAdAdAdAeBeBeBeBeBeBdBdBdBdBdBdBdBdBeBeBeBeBeBeBdAdAdA
D08,devprop,F01,famous,D,144,1689,FALSE,s002,x,x,x,x,x,x,x,dBdBdBdBdBdBcAcAcAcAcAcAeBeBeBeBeBeBeBcAcAcAcAcAcBcBcCcCcCcCcCcCcCdBdBdBdBdBeBeBeBeBeBeBcAcAcAcAcA,x,eBeBeBeBeBeBeBeBeBeBeBeBeBdBdBdBdBdBdBdBdBdB,x,eBeBeBeBdBdBdBdBdBdBdBdBdBcCcCcCcCcC,cAcAcAcAcAcAcAcAcAdAeB,x,x,bBbBbBdBdBdBdBdBdAdAdAdAeBeBeBeBeBeBdBdBdBdBdBdBdBdBeBeBeBeBeBeBdAdAdA
D13,devprop,F01,famous,D,1,1530,FALSE,s003,x,x,x,x,x,x,x,dBdBdBdBdBdBcAcAcAcAcAcAeBeBeBeBeBeBeBcAcAcAcAcAcBcBcCcCcCcCcCcCcCdBdBdBdBdBeBeBeBeBeBeBcAcAcAcAcA,x,eBeBeBeBeBeBeBeBeBeBeBeBeBdBdBdBdBdBdBdBdBdB,x,eBeBeBeBdBdBdBdBdBdBdBdBdBcCcCcCcCcC,cAcAcAcAcAcAcAcAcAdAeB,x,x,bBbBbBdBdBdBdBdBdAdAdAdAeBeBeBeBeBeBdBdBdBdBdBdBdBdBeBeBeBeBeBeBdAdAdA
D14,devprop,F01,famous,D,124,1104,FALSE,s004,x,x,x,x,x,x,x,dBdBdBdBdBdBcAcAcAcAcAcAeBeBeBeBeBeBeBcAcAcAcAcAcBcBcCcCcCcCcCcCcCdBdBdBdBdBeBeBeBeBeBeBcAcAcAcAcA,x,eBeBeBeBeBeBeBeBeBeBeBeBeBdBdBdBdBdBdBdBdBdB,x,eBeBeBeBdBdBdBdBdBdBdBdBdBcCcCcCcCcC,cAcAcAcAcAcAcAcAcAdAeB,x,x,bBbBbBdBdBdBdBdBdAdAdAdAeBeBeBeBeBeBdBdBdBdBdBdBdBdBeBeBeBeBeBeBdAdAdA
D15,devprop,F01,famous,D,98,1487,FALSE,s005,x,x,x,x,x,x,x,dBdBdBdBdBdBcAcAcAcAcAcAeBeBeBeBeBeBeBcAcAcAcAcAcBcBcCcCcCcCcCcCcCdBdBdBdBdBeBeBeBeBeBeBcAcAcAcAcA,x,eBeBeBeBeBeBeBeBeBeBeBeBeBdBdBdBdBdBdBdBdBdB,x,eBeBeBeBdBdBdBdBdBdBdBdBdBcCcCcCcCcC,cAcAcAcAcAcAcAcAcAdAeB,x,x,bBbBbBdBdBdBdBdBdAdAdAdAeBeBeBeBeBeBdBdBdBdBdBdBdBdBeBeBeBeBeBeBdAdAdA
D16,devprop,F01,famous,D,39,4961,FALSE,s006,x,x,x,x,x,x,x,dBdBdBdBdBdBcAcAcAcAcAcAeBeBeBeBeBeBeBcAcAcAcAcAcBcBcCcCcCcCcCcCcCdBdBdBdBdBeBeBeBeBeBeBcAcAcAcAcA,x,eBeBeBeBeBeBeBeBeBeBeBeBeBdBdBdBdBdBdBdBdBdB,x,eBeBeBeBdBdBdBdBdBdBdBdBdBcCcCcCcCcC,cAcAcAcAcAcAcAcAcAdAeB,x,x,bBbBbBdBdBdBdBdBdAdAdAdAeBeBeBeBeBeBdBdBdBdBdBdBdBdBeBeBeBeBeBeBdAdAdA
D17,devprop,F01,famous,D,78,2651,TRUE,s007,dBdBdBdBdBdBcAcAcAcAcAcAeBeBeBeBeBeBeBcAcAcAcAcAcBcBcCcCcCcCcCcCcCdBdBdBdBdBeBeBeBeBeBeBcAcAcAcAcA,x,x,x,x,x,x,x,x,eBeBeBeBeBeBeBeBeBeBeBeBeBdBdBdBdBdBdBdBdBdB,x,eBeBeBeBdBdBdBdBdBdBdBdBdBcCcCcCcCcC,cAcAcAcAcAcAcAcAcAdAeB,x,x,bBbBbBdBdBdBdBdBdAdAdAdAeBeBeBeBeBeBdBdBdBdBdBdBdBdBeBeBeBeBeBeBdAdAdA
D18,devprop,F01,famous,D,71,2575,FALSE,s008,x,x,x,x,x,x,x,dBdBdBdBdBdBcAcAcAcAcAcAeBeBeBeBeBeBeBcAcAcAcAcAcBcBcCcCcCcCcCcCcCdBdBdBdBdBeBeBeBeBeBeBcAcAcAcAcA,x,eBeBeBeBeBeBeBeBeBeBeBeBeBdBdBdBdBdBdBdBdBdB,x,eBeBeBeBdBdBdBdBdBdBdBdBdBcCcCcCcCcC,cAcAcAcAcAcAcAcAcAdAeB,x,x,bBbBbBdBdBdBdBdBdAdAdAdAeBeBeBeBeBeBdBdBdBdBdBdBdBdBeBeBeBeBeBeBdAdAdA
D90,devprop,F01,famous,D,23,1213,TRUE,s009,eBeBeBeBeBeBeBeBeBeBeBeBeBdBdBdBdBdBdBdBdBdB,x,x,x,x,x,x,dBdBdBdBdBdBcAcAcAcAcAcAeBeBeBeBeBeBeBcAcAcAcAcAcBcBcCcCcCcCcCcCcCdBdBdBdBdBeBeBeBeBeBeBcAcAcAcAcA,x,x,x,eBeBeBeBdBdBdBdBdBdBdBdBdBcCcCcCcCcC,cAcAcAcAcAcAcAcAcAdAeB,x,x,bBbBbBdBdBdBdBdBdAdAdAdAeBeBeBeBeBeBdBdBdBdBdBdBdBdBeBeBeBeBeBeBdAdAdA
D91,devprop,F01,famous,D,26,1615,FALSE,s010,x,x,x,x,x,x,x,dBdBdBdBdBdBcAcAcAcAcAcAeBeBeBeBeBeBeBcAcAcAcAcAcBcBcCcCcCcCcCcCcCdBdBdBdBdBeBeBeBeBeBeBcAcAcAcAcA,x,eBeBeBeBeBeBeBeBeBeBeBeBeBdBdBdBdBdBdBdBdBdB,x,eBeBeBeBdBdBdBdBdBdBdBdBdBcCcCcCcCcC,cAcAcAcAcAcAcAcAcAdAeB,x,x,bBbBbBdBdBdBdBdBdAdAdAdAeBeBeBeBeBeBdBdBdBdBdBdBdBdBeBeBeBeBeBeBdAdAdA
D92,devprop,F01,famous,D,127,1059,TRUE,s011,eBeBeBeBdBdBdBdBdBdBdBdBdBcCcCcCcCcC,x,x,x,x,x,x,dBdBdBdBdBdBcAcAcAcAcAcAeBeBeBeBeBeBeBcAcAcAcAcAcBcBcCcCcCcCcCcCcCdBdBdBdBdBeBeBeBeBeBeBcAcAcAcAcA,x,eBeBeBeBeBeBeBeBeBeBeBeBeBdBdBdBdBdBdBdBdBdB,x,x,cAcAcAcAcAcAcAcAcAdAeB,x,x,bBbBbBdBdBdBdBdBdAdAdAdAeBeBeBeBeBeBdBdBdBdBdBdBdBdBeBeBeBeBeBeBdAdAdA
D93,devprop,F01,famous,D,143,926,TRUE,s012,cAcAcAcAcAcAcAcAcAdAeB,x,x,x,x,x,x,dBdBdBdBdBdBcAcAcAcAcAcAeBeBeBeBeBeBeBcAcAcAcAcAcBcBcCcCcCcCcCcCcCdBdBdBdBdBeBeBeBeBeBeBcAcAcAcAcA,x,eBeBeBeBeBeBeBeBeBeBeBeBeBdBdBdBdBdBdBdBdBdB,x,eBeBeBeBdBdBdBdBdBdBdBdBdBcCcCcCcCcC,x,x,x,bBbBbBdBdBdBdBdBdAdAdAdAeBeBeBeBeBeBdBdBdBdBdBdBdBdBeBeBeBeBeBeBdAdAdA
D94,devprop,F01,famous,D,134,860,FALSE,s013,x,x,x,x,x,x,x,dBdBdBdBdBdBcAcAcAcAcAcAeBeBeBeBeBeBeBcAcAcAcAcAcBcBcCcCcCcCcCcCcCdBdBdBdBdBeBeBeBeBeBeBcAcAcAcAcA,x,eBeBeBeBeBeBeBeBeBeBeBeBeBdBdBdBdBdBdBdBdBdB,x,eBeBeBeBdBdBdBdBdBdBdBdBdBcCcCcCcCcC,cAcAcAcAcAcAcAcAcAdAeB,x,x,bBbBbBdBdBdBdBdBdAdAdAdAeBeBeBeBeBeBdBdBdBdBdBdBdBdBeBeBeBeBeBeBdAdAdA
D95,devprop,F01,famous,D,48,2133,FALSE,s014,x,x,x,x,x,x,x,dBdBdBdBdBdBcAcAcAcAcAcAeBeBeBeBeBeBeBcAcAcAcAcAcBcBcCcCcCcCcCcCcCdBdBdBdBdBeBeBeBeBeBeBcAcAcAcAcA,x,eBeBeBeBeBeBeBeBeBeBeBeBeBdBdBdBdBdBdBdBdBdB,x,eBeBeBeBdBdBdBdBdBdBdBdBdBcCcCcCcCcC,cAcAcAcAcAcAcAcAcAdAeB,x,x,bBbBbBdBdBdBdBdBdAdAdAdAeBeBeBeBeBeBdBdBdBdBdBdBdBdBeBeBeBeBeBeBdAdAdA
D96,devprop,F01,famous,D,24,1898,TRUE,s015,bBbBbBdBdBdBdBdBdAdAdAdAeBeBeBeBeBeBdBdBdBdBdBdBdBdBeBeBeBeBeBeBdAdAdA,x,x,x,x,x,x,dBdBdBdBdBdBcAcAcAcAcAcAeBeBeBeBeBeBeBcAcAcAcAcAcBcBcCcCcCcCcCcCcCdBdBdBdBdBeBeBeBeBeBeBcAcAcAcAcA,x,eBeBeBeBeBeBeBeBeBeBeBeBeBdBdBdBdBdBdBdBdBdB,x,eBeBeBeBdBdBdBdBdBdBdBdBdBcCcCcCcCcC,cAcAcAcAcAcAcAcAcAdAeB,x,x,x
D06,devprop,F02,famous,A,14,2132,TRUE,s001,bBbBbBbBbBbBbBbBbBdBdBdBdBeBeBeBeBeBeBeBeBdBeBeBeBcAcAcAcAcAcAcAcAcAcCcCcCcC,x,cBcBcBcAcAcAcAcAdAdAdBdAdAdAdAdAeBeBeBeBeBeBeBeBeBeBeBeBdBdBdBdBdBdBdBdBdBdBdCdCdCdCdCdCdCdCdCdBdBdBdBdBdBdBbBbBbBbBbBbBbBbBcAcAcAcAcAcAdBdBdBdBdBdBdBfBeBfBfBfBfBfBfBfBfBfBfBeBeBeBeBeBeBeBeBeB,cBcBcBcBcBcAcAcAcAcAcCcCdBdBdBdBdBdBdBdBdBdBdAdAdBdBdBdB,x,cCcCcCcCcCcCdBdBdBdBeBeBeBeBeBeBeBeBeBeBeBdBdBdAdAdBdBdBdB,cCcCcCdBdBdBdBdBdBdBcBcBcBcBcBcBcAcAcAcAcAdBdBdBdBdBdBdBdBdBdBdBdBcBcBcBcBcCcCcCcCcCcCbBbBbBaBaBaBaBaBaBaBaBdBdBdBdBdBdBdBdBdBdBdBdBcBcBcBcCcCcCcCcCcCcCdBdBdBdBdBdBdBdBdBdBcAcAcAcAcA,x,cBdBdBdBdBdBdBdBdBdBdBdBdBdBdBeBeBeBeBeBeBeBeBdBdBdBdBdBdBdBdBdBdBdBdBdBdBdBdBdBdBdBdBdBdBdBdBdBdB,dBdBdBdBdBdBeBeBeBeBeBeB,x,bBbBcCdBdBdBdBdBdBdBdBdBdBdBdBdBdBdBcA,aBbBbBcAcAcAcAcAcAcAcAcAcAdAdAcAdBdBcAdBdBdAdAdAdAdAdAdA,dBdBdBdBdBdBdBdBdBeBeBeBeBeBeBdBdBdBdBdBdB,cBcBcBcBcBcAcAcAdBcCdBdBdBeBeBeBeBeBdBdBdBdBcAcAcAcAcA,bBbBbBcAcAcAdBdBcAdBdAdAdBeBeBeBeBeBdBdBdBdBdBdBdBdBdBdBdBdBdBdBdBdBcAcC
D08,devprop,F02,famous,A,24,5031,TRUE,s002,cBcBcBcAcAcAcAcAdAdAdBdAdAdAdAdAeBeBeBeBeBeBeBeBeBeBeBeBdBdBdBdBdBdBdBdBdBdBdCdCdCdCdCdCdCdCdCdBdBdBdBdBdBdBbBbBbBbBbBbBbBbBcAcAcAcAcAcAdBdBdBdBdBdBdBfBeBfBfBfBfBfBfBfBfBfBfBeBeBeBeBeBeBeBeBeB,bBbBbBbBbBbBbBbBbBdBdBdBdBeBeBeBeBeBeBeBeBdBeBeBeBcAcAcAcAcAcAcAcAcAcCcCcCcC,x,cBcBcBcBcBcAcAcAcAcAcCcCdBdBdBdBdBdBdBdBdBdBdAdAdBdBdBdB,x,cCcCcCcCcCcCdBdBdBdBeBeBeBeBeBeBeBeBeBeBeBdBdBdAdAdBdBdBdB,cCcCcCdBdBdBdBdBdBdBcBcBcBcBcBcBcAcAcAcAcAdBdBdBdBdBdBdBdBdBdBdBdBcBcBcBcBcCcCcCcCcCcCbBbBbBaBaBaBaBaBaBaBaBdBdBdBdBdBdBdBdBdBdBdBdBcBcBcBcCcCcCcCcCcCcCdBdBdBdBdBdBdBdBdBdBcAcAcAcAcA,x,cBdBdBdBdBdBdBdBdBdBdBdBdBdBdBeBeBeBeBeBeBeBeBdBdBdBdBdBdBdBdBdBdBdBdBdBdBdBdBdBdBdBdBdBdBdBdBdBdB,dBdBdBdBdBdBeBeBeBeBeBeB,x,bBbBcCdBdBdBdBdBdBdBdBdBdBdBdBdBdBdBcA,aBbBbBcAcAcAcAcAcAcAcAcAcAdAdAcAdBdBcAdBdBdAdAdAdAdAdAdA,dBdBdBdBdBdBdBdBdBeBeBeBeBeBeBdBdBdBdBdBdB,cBcBcBcBcBcAcAcAdBcCdBdBdBeBeBeBeBeBdBdBdBdBcAcAcAcAcA,bBbBbBcAcAcAdBdBcAdBdAdAdBeBeBeBeBeBdBdBdBdBdBdBdBdBdBdBdBdBdBdBdBdBcAcC
D13,devprop,F02,famous,A,52,1474,TRUE,s003,cBcBcBcBcBcAcAcAcAcAcCcCdBdBdBdBdBdBdBdBdBdBdAdAdBdBdBdB,bBbBbBbBbBbBbBbBbBdBdBdBdBeBeBeBeBeBeBeBeBdBeBeBeBcAcAcAcAcAcAcAcAcAcCcCcCcC,cBcBcBcAcAcAcAcAdAdAdBdAdAdAdAdAeBeBeBeBeBeBeBeBeBeBeBeBdBdBdBdBdBdBdBdBdBdBdCdCdCdCdCdCdCdCdCdBdBdBdBdBdBdBbBbBbBbBbBbBbBbBcAcAcAcAcAcAdBdBdBdBdBdBdBfBeBfBfBfBfBfBfBfBfBfBfBeBeBeBeBeBeBeBeBeB,x,x,cCcCcCcCcCcCdBdBdBdBeBeBeBeBeBeBeBeBeBeBeBdBdBdAdAdBdBdBdB,cCcCcCdBdBdBdBdBdBdBcBcBcBcBcBcBcAcAcAcAcAdBdBdBdBdBdBdBdBdBdBdBdBcBcBcBcBcCcCcCcCcCcCbBbBbBaBaBaBaBaBaBaBaBdBdBdBdBdBdBdBdBdBdBdBdBcBcBcBcCcCcCcCcCcCcCdBdBdBdBdBdBdBdBdBdBcAcAcAcAcA,x,cBdBdBdBdBdBdBdBdBdBdBdBdBdBdBeBeBeBeBeBeBeBeBdBdBdBdBdBdBdBdBdBdBdBdBdBdBdBdBdBdBdBdBdBdBdBdBdBdB,dBdBdBdBdBdBeBeBeBeBeBeB,x,bBbBcCdBdBdBdBdBdBdBdBdBdBdBdBdBdBdBcA,aBbBbBcAcAcAcAcAcAcAcAcAcAdAdAcAdBdBcAdBdBdAdAdAdAdAdAdA,dBdBdBdBdBdBdBdBdBeBeBeBeBeBeBdBdBdBdBdBdB,cBcBcBcBcBcAcAcAdBcCdBdBdBeBeBeBeBeBdBdBdBdBcAcAcAcAcA,bBbBbBcAcAcAdBdBcAdBdAdAdBeBeBeBeBeBdBdBdBdBdBdBdBdBdBdBdBdBdBdBdBdBcAcC
D14,devprop,F02,famous,A,83,1202,FALSE,s004,x,bBbBbBbBbBbBbBbBbBdBdBdBdBeBeBeBeBeBeBeBeBdBeBeBeBcAcAcAcAcAcAcAcAcAcCcCcCcC,cBcBcBcAcAcAcAcAdAdAdBdAdAdAdAdAeBeBeBeBeBeBeBeBeBeBeBeBdBdBdBdBdBdBdBdBdBdBdCdCdCdCdCdCdCdCdCdBdBdBdBdBdBdBbBbBbBbBbBbBbBbBcAcAcAcAcAcAdBdBdBdBdBdBdBfBeBfBfBfBfBfBfBfBfBfBfBeBeBeBeBeBeBeBeBeB,cBcBcBcBcBcAcAcAcAcAcCcCdBdBdBdBdBdBdBdBdBdBdAdAdBdBdBdB,x,cCcCcCcCcCcCdBdBdBdBeBeBeBeBeBeBeBeBeBeBeBdBdBdAdAdBdBdBdB,cCcCcCdBdBdBdBdBdBdBcBcBcBcBcBcBcAcAcAcAcAdBdBdBdBdBdBdBdBdBdBdBdBcBcBcBcBcCcCcCcCcCcCbBbBbBaBaBaBaBaBaBaBaBdBdBdBdBdBdBdBdBdBdBdBdBcBcBcBcCcCcCcCcCcCcCdBdBdBdBdBdBdBdBdBdBcAcAcAcAcA,x,cBdBdBdBdBdBdBdBdBdBdBdBdBdBdBeBeBeBeBeBeBeBeBdBdBdBdBdBdBdBdBdBdBdBdBdBdBdBdBdBdBdBdBdBdBdBdBdBdB,dBdBdBdBdBdBeBeBeBeBeBeB,x,bBbBcCdBdBdBdBdBdBdBdBdBdBdBdBdBdBdBcA,aBbBbBcAcAcAcAcAcAcAcAcAcAdAdAcAdBdBcAdBdBdAdAdAdAdAdAdA,dBdBdBdBdBdBdBdBdBeBeBeBeBeBeBdBdBdBdBdBdB,cBcBcBcBcBcAcAcAdBcCdBdBdBeBeBeBeBeBdBdBdBdBcAcAcAcAcA,bBbBbBcAcAcAdBdBcAdBdAdAdBeBeBeBeBeBdBdBdBdBdBdBdBdBdBdBdBdBdBdBdBdBcAcC
D15,devprop,F02,famous,A,1,1824,TRUE,s005,cCcCcCcCcCcCdBdBdBdBeBeBeBeBeBeBeBeBeBeBeBdBdBdAdAdBdBdBdB,bBbBbBbBbBbBbBbBbBdBdBdBdBeBeBeBeBeBeBeBeBdBeBeBeBcAcAcAcAcAcAcAcAcAcCcCcCcC,cBcBcBcAcAcAcAcAdAdAdBdAdAdAdAdAeBeBeBeBeBeBeBeBeBeBeBeBdBdBdBdBdBdBdBdBdBdBdCdCdCdCdCdCdCdCdCdBdBdBdBdBdBdBbBbBbBbBbBbBbBbBcAcAcAcAcAcAdBdBdBdBdBdBdBfBeBfBfBfBfBfBfBfBfBfBfBeBeBeBeBeBeBeBeBeB,cBcBcBcBcBcAcAcAcAcAcCcCdBdBdBdBdBdBdBdBdBdBdAdAdBdBdBdB,x,x,cCcCcCdBdBdBdBdBdBdBcBcBcBcBcBcBcAcAcAcAcAdBdBdBdBdBdBdBdBdBdBdBdBcBcBcBcBcCcCcCcCcCcCbBbBbBaBaBaBaBaBaBaBaBdBdBdBdBdBdBdBdBdBdBdBdBcBcBcBcCcCcCcCcCcCcCdBdBdBdBdBdBdBdBdBdBcAcAcAcAcA,x,cBdBdBdBdBdBdBdBdBdBdBdBdBdBdBeBeBeBeBeBeBeBeBdBdBdBdBdBdBdBdBdBdBdBdBdBdBdBdBdBdBdBdBdBdBdBdBdBdB,dBdBdBdBdBdBeBeBeBeBeBeB,x,bBbBcCdBdBdBdBdBdBdBdBdBdBdBdBdBdBdBcA,aBbBbBcAcAcAcAcAcAcAcAcAcAdAdAcAdBdBcAdBdBdAdAdAdAdAdAdA,dBdBdBdBdBdBdBdBdBeBeBeBeBeBeBdBdBdBdBdBdB,cBcBcBcBcBcAcAcAdBcCdBdBdBeBeBeBeBeBdBdBdBdBcAcAcAcAcA,bBbBbBcAcAcAdBdBcAdBdAdAdBeBeBeBeBeBdBdBdBdBdBdBdBdBdBdBdBdBdBdBdBdBcAcC
D16,devprop,F02,famous,A,73,4744,TRUE,s006,cCcCcCdBdBdBdBdBdBdBcBcBcBcBcBcBcAcAcAcAcAdBdBdBdBdBdBdBdBdBdBdBdBcBcBcBcBcCcCcCcCcCcCbBbBbBaBaBaBaBaBaBaBaBdBdBdBdBdBdBdBdBdBdBdBdBcBcBcBcCcCcCcCcCcCcCdBdBdBdBdBdBdBdBdBdBcAcAcAcAcA,bBbBbBbBbBbBbBbBbBdBdBdBdBeBeBeBeBeBeBeBeBdBeBeBeBcAcAcAcAcAcAcAcAcAcCcCcCcC,cBcBcBcAcAcAcAcAdAdAdBdAdAdAdAdAeBeBeBeBeBeBeBeBeBeBeBeBdBdBdBdBdBdBdBdBdBdBdCdCdCdCdCdCdCdCdCdBdBdBdBdBdBdBbBbBbBbBbBbBbBbBcAcAcAcAcAcAdBdBdBdBdBdBdBfBeBfBfBfBfBfBfBfBfBfBfBeBeBeBeBeBeBeBeBeB,cBcBcBcBcBcAcAcAcAcAcCcCdBdBdBdBdBdBdBdBdBdBdAdAdBdBdBdB,x,cCcCcCcCcCcCdBdBdBdBeBeBeBeBeBeBeBeBeBeBeBdBdBdAdAdBdBdBdB,x,x,cBdBdBdBdBdBdBdBdBdBdBdBdBdBdBeBeBeBeBeBeBeBeBdBdBdBdBdBdBdBdBdBdBdBdBdBdBdBdBdBdBdBdBdBdBdBdBdBdB,dBdBdBdBdBdBeBeBeBeBeBeB,x,bBbBcCdBdBdBdBdBdBdBdBdBdBdBdBdBdBdBcA,aBbBbBcAcAcAcAcAcAcAcAcAcAdAdAcAdBdBcAdBdBdAdAdAdAdAdAdA,dBdBdBdBdBdBdBdBdBeBeBeBeBeBeBdBdBdBdBdBdB,cBcBcBcBcBcAcAcAdBcCdBdBdBeBeBeBeBeBdBdBdBdBcAcAcAcAcA,bBbBbBcAcAcAdBdBcAdBdAdAdBeBeBeBeBeBdBdBdBdBdBdBdBdBdBdBdBdBdBdBdBdBcAcC
D17,devprop,F02,famous,A,70,3607,FALSE,s007,x,bBbBbBbBbBbBbBbBbBdBdBdBdBeBeBeBeBeBeBeBeBdBeBeBeBcAcAcAcAcAcAcAcAcAcCcCcCcC,cBcBcBcAcAcAcAcAdAdAdBdAdAdAdAdAeBeBeBeBeBeBeBeBeBeBeBeBdBdBdBdBdBdBdBdBdBdBdCdCdCdCdCdCdCdCdCdBdBdBdBdBdBdBbBbBbBbBbBbBbBbBcAcAcAcAcAcAdBdBdBdBdBdBdBfBeBfBfBfBfBfBfBfBfBfBfBeBeBeBeBeBeBeBeBeB,cBcBcBcBcBcAcAcAcAcAcCcCdBdBdBdBdBdBdBdBdBdBdAdAdBdBdBdB,x,cCcCcCcCcCcCdBdBdBdBeBeBeBeBeBeBeBeBeBeBeBdBdBdAdAdBdBdBdB,cCcCcCdBdBdBdBdBdBdBcBcBcBcBcBcBcAcAcAcAcAdBdBdBdBdBdBdBdBdBdBdBdBcBcBcBcBcCcCcCcCcCcCbBbBbBaBaBaBaBaBaBaBaBdBdBdBdBdBdBdBdBdBdBdBdBcBcBcBcCcCcCcCcCcCcCdBdBdBdBdBdBdBdBdBdBcAcAcAcAcA,x,cBdBdBdBdBdBdBdBdBdBdBdBdBdBdBeBeBeBeBeBeBeBeBdBdBdBdBdBdBdBdBdBdBdBdBdBdBdBdBdBdBdBdBdBdBdBdBdBdB,dBdBdBdBdBdBeBeBeBeBeBeB,x,bBbBcCdBdBdBdBdBdBdBdBdBdBdBdBdBdBdBcA,aBbBbBcAcAcAcAcAcAcAcAcAcAdAdAcAdBdBcAdBdBdAdAdAdAdAdAdA,dBdBdBdBdBdBdBdBdBeBeBeBeBeBeBdBdBdBdBdBdB,cBcBcBcBcBcAcAcAdBcCdBdBdBeBeBeBeBeBdBdBdBdBcAcAcAcAcA,bBbBbBcAcAcAdBdBcAdBdAdAdBeBeBeBeBeBdBdBdBdBdBdBdBdBdBdBdBdBdBdBdBdBcAcC
D18,devprop,F02,famous,A,5,2685,TRUE,s008,cBdBdBdBdBdBdBdBdBdBdBdBdBdBdBeBeBeBeBeBeBeBeBdBdBdBdBdBdBdBdBdBdBdBdBdBdBdBdBdBdBdBdBdBdBdBdBdBdB,bBbBbBbBbBbBbBbBbBdBdBdBdBeBeBeBeBeBeBeBeBdBeBeBeBcAcAcAcAcAcAcAcAcAcCcCcCcC,cBcBcBcAcAcAcAcAdAdAdBdAdAdAdAdAeBeBeBeBeBeBeBeBeBeBeBeBdBdBdBdBdBdBdBdBdBdBdCdCdCdCdCdCdCdCdCdBdBdBdBdBdBdBbBbBbBbBbBbBbBbBcAcAcAcAcAcAdBdBdBdBdBdBdBfBeBfBfBfBfBfBfBfBfBfBfBeBeBeBeBeBeBeBeBeB,cBcBcBcBcBcAcAcAcAcAcCcCdBdBdBdBdBdBdBdBdBdBdAdAdBdBdBdB,x,cCcCcCcCcCcCdBdBdBdBeBeBeBeBeBeBeBeBeBeBeBdBdBdAdAdBdBdBdB,cCcCcCdBdBdBdBdBdBdBcBcBcBcBcBcBcAcAcAcAcAdBdBdBdBdBdBdBdBdBdBdBdBcBcBcBcBcCcCcCcCcCcCbBbBbBaBaBaBaBaBaBaBaBdBdBdBdBdBdBdBdBdBdBdBdBcBcBcBcCcCcCcCcCcCcCdBdBdBdBdBdBdBdBdBdBcAcAcAcAcA,x,x,dBdBdBdBdBdBeBeBeBeBeBeB,x,bBbBcCdBdBdBdBdBdBdBdBdBdBdBdBdBdBdBcA,aBbBbBcAcAcAcAcAcAcAcAcAcAdAdAcAdBdBcAdBdBdAdAdAdAdAdAdA,dBdBdBdBdBdBdBdBdBeBeBeBeBeBeBdBdBdBdBdBdB,cBcBcBcBcBcAcAcAdBcCdBdBdBeBeBeBeBeBdBdBdBdBcAcAcAcAcA,bBbBbBcAcAcAdBdBcAdBdAdAdBeBeBeBeBeBdBdBdBdBdBdBdBdBdBdBdBdBdBdBdBdBcAcC
D90,devprop,F02,famous,A,106,716,TRUE,s009,dBdBdBdBdBdBeBeBeBeBeBeB,bBbBbBbBbBbBbBbBbBdBdBdBdBeBeBeBeBeBeBeBeBdBeBeBeBcAcAcAcAcAcAcAcAcAcCcCcCcC,cBcBcBcAcAcAcAcAdAdAdBdAdAdAdAdAeBeBeBeBeBeBeBeBeBeBeBeBdBdBdBdBdBdBdBdBdBdBdCdCdCdCdCdCdCdCdCdBdBdBdBdBdBdBbBbBbBbBbBbBbBbBcAcAcAcAcAcAdBdBdBdBdBdBdBfBeBfBfBfBfBfBfBfBfBfBfBeBeBeBeBeBeBeBeBeB,cBcBcBcBcBcAcAcAcAcAcCcCdBdBdBdBdBdBdBdBdBdBdAdAdBdBdBdB,x,cCcCcCcCcCcCdBdBdBdBeBeBeBeBeBeBeBeBeBeBeBdBdBdAdAdBdBdBdB,cCcCcCdBdBdBdBdBdBdBcBcBcBcBcBcBcAcAcAcAcAdBdBdBdBdBdBdBdBdBdBdBdBcBcBcBcBcCcCcCcCcCcCbBbBbBaBaBaBaBaBaBaBaBdBdBdBdBdBdBdBdBdBdBdBdBcBcBcBcCcCcCcCcCcCcCdBdBdBdBdBdBdBdBdBdBcAcAcAcAcA,x,cBdBdBdBdBdBdBdBdBdBdBdBdBdBdBeBeBeBeBeBeBeBeBdBdBdBdBdBdBdBdBdBdBdBdBdBdBdBdBdBdBdBdBdBdBdBdBdBdB,x,x,bBbBcCdBdBdBdBdBdBdBdBdBdBdBdBdBdBdBcA,aBbBbBcAcAcAcAcAcAcAcAcAcAdAdAcAdBdBcAdBdBdAdAdAdAdAdAdA,dBdBdBdBdBdBdBdBdBeBeBeBeBeBeBdBdBdBdBdBdB,cBcBcBcBcBcAcAcAdBcCdBdBdBeBeBeBeBeBdBdBdBdBcAcAcAcAcA,bBbBbBcAcAcAdBdBcAdBdAdAdBeBeBeBeBeBdBdBdBdBdBdBdBdBdBdBdBdBdBdBdBdBcAcC
D91,devprop,F02,famous,A,78,3942,FALSE,s010,x,bBbBbBbBbBbBbBbBbBdBdBdBdBeBeBeBeBeBeBeBeBdBeBeBeBcAcAcAcAcAcAcAcAcAcCcCcCcC,cBcBcBcAcAcAcAcAdAdAdBdAdAdAdAdAeBeBeBeBeBeBeBeBeBeBeBeBdBdBdBdBdBdBdBdBdBdBdCdCdCdCdCdCdCdCdCdBdBdBdBdBdBdBbBbBbBbBbBbBbBbBcAcAcAcAcAcAdBdBdBdBdBdBdBfBeBfBfBfBfBfBfBfBfBfBfBeBeBeBeBeBeBeBeBeB,cBcBcBcBcBcAcAcAcAcAcCcCdBdBdBdBdBdBdBdBdBdBdAdAdBdBdBdB,x,cCcCcCcCcCcCdBdBdBdBeBeBeBeBeBeBeBeBeBeBeBdBdBdAdAdBdBdBdB,cCcCcCdBdBdBdBdBdBdBcBcBcBcBcBcBcAcAcAcAcAdBdBdBdBdBdBdBdBdBdBdBdBcBcBcBcBcCcCcCcCcCcCbBbBbBaBaBaBaBaBaBaBaBdBdBdBdBdBdBdBdBdBdBdBdBcBcBcBcCcCcCcCcCcCcCdBdBdBdBdBdBdBdBdBdBcAcAcAcAcA,x,cBdBdBdBdBdBdBdBdBdBdBdBdBdBdBeBeBeBeBeBeBeBeBdBdBdBdBdBdBdBdBdBdBdBdBdBdBdBdBdBdBdBdBdBdBdBdBdBdB,dBdBdBdBdBdBeBeBeBeBeBeB,x,bBbBcCdBdBdBdBdBdBdBdBdBdBdBdBdBdBdBcA,aBbBbBcAcAcAcAcAcAcAcAcAcAdAdAcAdBdBcAdBdBdAdAdAdAdAdAdA,dBdBdBdBdBdBdBdBdBeBeBeBeBeBeBdBdBdBdBdBdB,cBcBcBcBcBcAcAcAdBcCdBdBdBeBeBeBeBeBdBdBdBdBcAcAcAcAcA,bBbBbBcAcAcAdBdBcAdBdAdAdBeBeBeBeBeBdBdBdBdBdBdBdBdBdBdBdBdBdBdBdBdBcAcC
D92,devprop,F02,famous,A,69,1106,TRUE,s011,bBbBcCdBdBdBdBdBdBdBdBdBdBdBdBdBdBdBcA,bBbBbBbBbBbBbBbBbBdBdBdBdBeBeBeBeBeBeBeBeBdBeBeBeBcAcAcAcAcAcAcAcAcAcCcCcCcC,cBcBcBcAcAcAcAcAdAdAdBdAdAdAdAdAeBeBeBeBeBeBeBeBeBeBeBeBdBdBdBdBdBdBdBdBdBdBdCdCdCdCdCdCdCdCdCdBdBdBdBdBdBdBbBbBbBbBbBbBbBbBcAcAcAcAcAcAdBdBdBdBdBdBdBfBeBfBfBfBfBfBfBfBfBfBfBeBeBeBeBeBeBeBeBeB,cBcBcBcBcBcAcAcAcAcAcCcCdBdBdBdBdBdBdBdBdBdBdAdAdBdBdBdB,x,cCcCcCcCcCcCdBdBdBdBeBeBeBeBeBeBeBeBeBeBeBdBdBdAdAdBdBdBdB,cCcCcCdBdBdBdBdBdBdBcBcBcBcBcBcBcAcAcAcAcAdBdBdBdBdBdBdBdBdBdBdBdBcBcBcBcBcCcCcCcCcCcCbBbBbBaBaBaBaBaBaBaBaBdBdBdBdBdBdBdBdBdBdBdBdBcBcBcBcCcCcCcCcCcCcCdBdBdBdBdBdBdBdBdBdBcAcAcAcAcA,x,cBdBdBdBdBdBdBdBdBdBdBdBdBdBdBeBeBeBeBeBeBeBeBdBdBdBdBdBdBdBdBdBdBdBdBdBdBdBdBdBdBdBdBdBdBdBdBdBdB,dBdBdBdBdBdBeBeBeBeBeBeB,x,x,aBbBbBcAcAcAcAcAcAcAcAcAcAdAdAcAdBdBcAdBdBdAdAdAdAdAdAdA,dBdBdBdBdBdBdBdBdBeBeBeBeBeBeBdBdBdBdBdBdB,cBcBcBcBcBcAcAcAdBcCdBdBdBeBeBeBeBeBdBdBdBdBcAcAcAcAcA,bBbBbBcAcAcAdBdBcAdBdAdAdBeBeBeBeBeBdBdBdBdBdBdBdBdBdBdBdBdBdBdBdBdBcAcC
D93,devprop,F02,famous,A,7,1514,TRUE,s012,aBbBbBcAcAcAcAcAcAcAcAcAcAdAdAcAdBdBcAdBdBdAdAdAdAdAdAdA,bBbBbBbBbBbBbBbBbBdBdBdBdBeBeBeBeBeBeBeBeBdBeBeBeBcAcAcAcAcAcAcAcAcAcCcCcCcC,cBcBcBcAcAcAcAcAdAdAdBdAdAdAdAdAeBeBeBeBeBeBeBeBeBeBeBeBdBdBdBdBdBdBdBdBdBdBdCdCdCdCdCdCdCdCdCdBdBdBdBdBdBdBbBbBbBbBbBbBbBbBcAcAcAcAcAcAdBdBdBdBdBdBdBfBeBfBfBfBfBfBfBfBfBfBfBeBeBeBeBeBeBeBeBeB,cBcBcBcBcBcAcAcAcAcAcCcCdBdBdBdBdBdBdBdBdBdBdAdAdBdBdBdB,x,cCcCcCcCcCcCdBdBdBdBeBeBeBeBeBeBeBeBeBeBeBdBdBdAdAdBdBdBdB,cCcCcCdBdBdBdBdBdBdBcBcBcBcBcBcBcAcAcAcAcAdBdBdBdBdBdBdBdBdBdBdBdBcBcBcBcBcCcCcCcCcCcCbBbBbBaBaBaBaBaBaBaBaBdBdBdBdBdBdBdBdBdBdBdBdBcBcBcBcCcCcCcCcCcCcCdBdBdBdBdBdBdBdBdBdBcAcAcAcAcA,x,cBdBdBdBdBdBdBdBdBdBdBdBdBdBdBeBeBeBeBeBeBeBeBdBdBdBdBdBdBdBdBdBdBdBdBdBdBdBdBdBdBdBdBdBdBdBdBdBdB,dBdBdBdBdBdBeBeBeBeBeBeB,x,bBbBcCdBdBdBdBdBdBdBdBdBdBdBdBdBdBdBcA,x,dBdBdBdBdBdBdBdBdBeBeBeBeBeBeBdBdBdBdBdBdB,cBcBcBcBcBcAcAcAdBcCdBdBdBeBeBeBeBeBdBdBdBdBcAcAcAcAcA,bBbBbBcAcAcAdBdBcAdBdAdAdBeBeBeBeBeBdBdBdBdBdBdBdBdBdBdBdBdBdBdBdBdBcAcC
D94,devprop,F02,famous,A,16,1018,TRUE,s013,dBdBdBdBdBdBdBdBdBeBeBeBeBeBeBdBdBdBdBdBdB,bBbBbBbBbBbBbBbBbBdBdBdBdBeBeBeBeBeBeBeBeBdBeBeBeBcAcAcAcAcAcAcAcAcAcCcCcCcC,cBcBcBcAcAcAcAcAdAdAdBdAdAdAdAdAeBeBeBeBeBeBeBeBeBeBeBeBdBdBdBdBdBdBdBdBdBdBdCdCdCdCdCdCdCdCdCdBdBdBdBdBdBdBbBbBbBbBbBbBbBbBcAcAcAcAcAcAdBdBdBdBdBdBdBfBeBfBfBfBfBfBfBfBfBfBfBeBeBeBeBeBeBeBeBeB,cBcBcBcBcBcAcAcAcAcAcCcCdBdBdBdBdBdBdBdBdBdBdAdAdBdBdBdB,x,cCcCcCcCcCcCdBdBdBdBeBeBeBeBeBeBeBeBeBeBeBdBdBdAdAdBdBdBdB,cCcCcCdBdBdBdBdBdBdBcBcBcBcBcBcBcAcAcAcAcAdBdBdBdBdBdBdBdBdBdBdBdBcBcBcBcBcCcCcCcCcCcCbBbBbBaBaBaBaBaBaBaBaBdBdBdBdBdBdBdBdBdBdBdBdBcBcBcBcCcCcCcCcCcCcCdBdBdBdBdBdBdBdBdBdBcAcAcAcAcA,x,cBdBdBdBdBdBdBdBdBdBdBdBdBdBdBeBeBeBeBeBeBeBeBdBdBdBdBdBdBdBdBdBdBdBdBdBdBdBdBdBdBdBdBdBdBdBdBdBdB,dBdBdBdBdBdBeBeBeBeBeBeB,x,bBbBcCdBdBdBdBdBdBdBdBdBdBdBdBdBdBdBcA,aBbBbBcAcAcAcAcAcAcAcAcAcAdAdAcAdBdBcAdBdBdAdAdAdAdAdAdA,x,cBcBcBcBcBcAcAcAdBcCdBdBdBeBeBeBeBeBdBdBdBdBcAcAcAcAcA,bBbBbBcAcAcAdBdBcAdBdAdAdBeBeBeBeBeBdBdBdBdBdBdBdBdBdBdBdBdBdBdBdBdBcAcC
D95,devprop,F02,famous,A,103,1311,TRUE,s014,cBcBcBcBcBcAcAcAdBcCdBdBdBeBeBeBeBeBdBdBdBdBcAcAcAcAcA,bBbBbBbBbBbBbBbBbBdBdBdBdBeBeBeBeBeBeBeBeBdBeBeBeBcAcAcAcAcAcAcAcAcAcCcCcCcC,cBcBcBcAcAcAcAcAdAdAdBdAdAdAdAdAeBeBeBeBeBeBeBeBeBeBeBeBdBdBdBdBdBdBdBdBdBdBdCdCdCdCdCdCdCdCdCdBdBdBdBdBdBdBbBbBbBbBbBbBbBbBcAcAcAcAcAcAdBdBdBdBdBdBdBfBeBfBfBfBfBfBfBfBfBfBfBeBeBeBeBeBeBeBeBeB,cBcBcBcBcBcAcAcAcAcAcCcCdBdBdBdBdBdBdBdBdBdBdAdAdBdBdBdB,x,cCcCcCcCcCcCdBdBdBdBeBeBeBeBeBeBeBeBeBeBeBdBdBdAdAdBdBdBdB,cCcCcCdBdBdBdBdBdBdBcBcBcBcBcBcBcAcAcAcAcAdBdBdBdBdBdBdBdBdBdBdBdBcBcBcBcBcCcCcCcCcCcCbBbBbBaBaBaBaBaBaBaBaBdBdBdBdBdBdBdBdBdBdBdBdBcBcBcBcCcCcCcCcCcCcCdBdBdBdBdBdBdBdBdBdBcAcAcAcAcA,x,cBdBdBdBdBdBdBdBdBdBdBdBdBdBdBeBeBeBeBeBeBeBeBdBdBdBdBdBdBdBdBdBdBdBdBdBdBdBdBdBdBdBdBdBdBdBdBdBdB,dBdBdBdBdBdBeBeBeBeBeBeB,x,bBbBcCdBdBdBdBdBdBdBdBdBdBdBdBdBdBdBcA,aBbBbBcAcAcAcAcAcAcAcAcAcAdAdAcAdBdBcAdBdBdAdAdAdAdAdAdA,dBdBdBdBdBdBdBdBdBeBeBeBeBeBeBdBdBdBdBdBdB,x,bBbBbBcAcAcAdBdBcAdBdAdAdBeBeBeBeBeBdBdBdBdBdBdBdBdBdBdBdBdBdBdBdBdBcAcC
D96,devprop,F02,famous,A,116,1915,TRUE,s015,bBbBbBcAcAcAdBdBcAdBdAdAdBeBeBeBeBeBdBdBdBdBdBdBdBdBdBdBdBdBdBdBdBdBcAcC,bBbBbBbBbBbBbBbBbBdBdBdBdBeBeBeBeBeBeBeBeBdBeBeBeBcAcAcAcAcAcAcAcAcAcCcCcCcC,cBcBcBcAcAcAcAcAdAdAdBdAdAdAdAdAeBeBeBeBeBeBeBeBeBeBeBeBdBdBdBdBdBdBdBdBdBdBdCdCdCdCdCdCdCdCdCdBdBdBdBdBdBdBbBbBbBbBbBbBbBbBcAcAcAcAcAcAdBdBdBdBdBdBdBfBeBfBfBfBfBfBfBfBfBfBfBeBeBeBeBeBeBeBeBeB,cBcBcBcBcBcAcAcAcAcAcCcCdBdBdBdBdBdBdBdBdBdBdAdAdBdBdBdB,x,cCcCcCcCcCcCdBdBdBdBeBeBeBeBeBeBeBeBeBeBeBdBdBdAdAdBdBdBdB,cCcCcCdBdBdBdBdBdBdBcBcBcBcBcBcBcAcAcAcAcAdBdBdBdBdBdBdBdBdBdBdBdBcBcBcBcBcCcCcCcCcCcCbBbBbBaBaBaBaBaBaBaBaBdBdBdBdBdBdBdBdBdBdBdBdBcBcBcBcCcCcCcCcCcCcCdBdBdBdBdBdBdBdBdBdBcAcAcAcAcA,x,cBdBdBdBdBdBdBdBdBdBdBdBdBdBdBeBeBeBeBeBeBeBeBdBdBdBdBdBdBdBdBdBdBdBdBdBdBdBdBdBdBdBdBdBdBdBdBdBdB,dBdBdBdBdBdBeBeBeBeBeBeB,x,bBbBcCdBdBdBdBdBdBdBdBdBdBdBdBdBdBdBcA,aBbBbBcAcAcAcAcAcAcAcAcAcAdAdAcAdBdBcAdBdBdAdAdAdAdAdAdA,dBdBdBdBdBdBdBdBdBeBeBeBeBeBeBdBdBdBdBdBdB,cBcBcBcBcBcAcAcAdBcCdBdBdBeBeBeBeBeBdBdBdBdBcAcAcAcAcA,x
D06,devprop,F02,famous,B,133,4154,FALSE,s001,x,x,dCdCdCdCdCcBcBcBcBcBcAcAcAcAcAdBdBdBdBdBdBeBeBeBeBeBeBeBeBeBeBeBeBeBeBeBeBeBeBdCdCdCdCdCdCdCdCdCdCdBdBdBdBdBdBdBdBdBdBdBdBdBdBcAcAcAcA,dBdBdBdBdBcBcBcBcAcAcAcAcCcCcCcCcCcBcAcAcAcCcCcCcCcCcBcA,x,dBdBdBdBdBcAcAcAcAcAcAcAeBeBeBeBeBeBeBeBcBcBcBcBcBcC,eBeBeBeBeBeBeBeBdBdBdBdBdBdBcAcAcAcAcAeBeBeBeBeBeBeBeBeBeBeBcBcBcBcBcCcCcCcCcC,dBdBdBdBdBdBdBdBdBdBdBdBdBdBdBdBdBdBcCdBdBdBdAdAdAdAdAdAdAdAdAdBdBdBdBdBdBeBeBeBeBeBeBeBeBeBeBeBdBdBdBdBcAcAcAcAcAcAcAcAcAcCcCcCcCcCcCcCcCcCcCdCdCdCdCdCdCdCdCdCdBdBdBdBdBcAcAcAcAcAcAcAcAcAcA,eBdBcBcCcCcCcCcCcCcCdCdCdCdCdCdCcCcCcCcCcCcCcCcCcCcCdCdBdCdCdCdCdCdCdCdCdCcCcCcCcCcCcCcBcB,eBfBfBfBfBfBeBeBeBeBeBeBdAdAeBeBeBeBeBeB,x,eBeBeBdBdBdBdBdBdBcAcAcAcAcAcAcAcAcAcAcAcAcAcAcA,cAcAcAcAcAcAcAcAcAcAcAcAcAcA,dBdBdBdBcCcCcCcCcCcCeBeBeBeBeBeBeBeBcCcCcC,dBdBdBdBdBdBdBdBdBdBdBdBdBdBdBdB,dBdBdBdBcAcAcAcAcAdBdBdBdBdBdBdBdBdBdBdBdBeBeBeBeBeBeBdBdBdBdBdBdBdBdBdBdBdBdBdBdBdBdBdBdBdBdBdBdAdAdAdAdAdAdAdAdAeBeBeBeBeBeBdBdB
D08,devprop,F02,famous,B,83,3317,TRUE,s002,dCdCdCdCdCcBcBcBcBcBcAcAcAcAcAdBdBdBdBdBdBeBeBeBeBeBeBeBeBeBeBeBeBeBeBeBeBeBeBdCdCdCdCdCdCdCdCdCdCdBdBdBdBdBdBdBdBdBdBdBdBdBdBcAcAcAcA,x,x,dBdBdBdBdBcBcBcBcAcAcAcAcCcCcCcCcCcBcAcAcAcCcCcCcCcCcBcA,x,dBdBdBdBdBcAcAcAcAcAcAcAeBeBeBeBeBeBeBeBcBcBcBcBcBcC,eBeBeBeBeBeBeBeBdBdBdBdBdBdBcAcAcAcAcAeBeBeBeBeBeBeBeBeBeBeBcBcBcBcBcCcCcCcCcC,dBdBdBdBdBdBdBdBdBdBdBdBdBdBdBdBdBdBcCdBdBdBdAdAdAdAdAdAdAdAdAdBdBdBdBdBdBeBeBeBeBeBeBeBeBeBeBeBdBdBdBdBcAcAcAcAcAcAcAcAcAcCcCcCcCcCcCcCcCcCcCdCdCdCdCdCdCdCdCdCdBdBdBdBdBcAcAcAcAcAcAcAcAcAcA,eBdBcBcCcCcCcCcCcCcCdCdCdCdCdCdCcCcCcCcCcCcCcCcCcCcCdCdBdCdCdCdCdCdCdCdCdCcCcCcCcCcCcCcBcB,eBfBfBfBfBfBeBeBeBeBeBeBdAdAeBeBeBeBeBeB,x,eBeBeBdBdBdBdBdBdBcAcAcAcAcAcAcAcAcAcAcAcAcAcAcA,cAcAcAcAcAcAcAcAcAcAcAcAcAcA,dBdBdBdBcCcCcCcCcCcCeBeBeBeBeBeBeBeBcCcCcC,dBdBdBdBdBdBdBdBdBdBdBdBdBdBdBdB,dBdBdBdBcAcAcAcAcAdBdBdBdBdBdBdBdBdBdBdBdBeBeBeBeBeBeBdBdBdBdBdBdBdBdBdBdBdBdBdBdBdBdBdBdBdBdBdBdAdAdAdAdAdAdAdAdAeBeBeBeBeBeBdBdB
D13,devprop,F02,famous,B,5,1363,TRUE,s003,dBdBdBdBdBcBcBcBcAcAcAcAcCcCcCcCcCcBcAcAcAcCcCcCcCcCcBcA,x,dCdCdCdCdCcBcBcBcBcBcAcAcAcAcAdBdBdBdBdBdBeBeBeBeBeBeBeBeBeBeBeBeBeBeBeBeBeBeBdCdCdCdCdCdCdCdCdCdCdBdBdBdBdBdBdBdBdBdBdBdBdBdBcAcAcAcA,x,x,dBdBdBdBdBcAcAcAcAcAcAcAeBeBeBeBeBeBeBeBcBcBcBcBcBcC,eBeBeBeBeBeBeBeBdBdBdBdBdBdBcAcAcAcAcAeBeBeBeBeBeBeBeBeBeBeBcBcBcBcBcCcCcCcCcC,dBdBdBdBdBdBdBdBdBdBdBdBdBdBdBdBdBdBcCdBdBdBdAdAdAdAdAdAdAdAdAdBdBdBdBdBdBeBeBeBeBeBeBeBeBeBeBeBdBdBdBdBcAcAcAcAcAcAcAcAcAcCcCcCcCcCcCcCcCcCcCdCdCdCdCdCdCdCdCdCdBdBdBdBdBcAcAcAcAcAcAcAcAcAcA,eBdBcBcCcCcCcCcCcCcCdCdCdCdCdCdCcCcCcCcCcCcCcCcCcCcCdCdBdCdCdCdCdCdCdCdCdCcCcCcCcCcCcCcBcB,eBfBfBfBfBfBeBeBeBeBeBeBdAdAeBeBeBeBeBeB,x,eBeBeBdBdBdBdBdBdBcAcAcAcAcAcAcAcAcAcAcAcAcAcAcA,cAcAcAcAcAcAcAcAcAcAcAcAcAcA,dBdBdBdBcCcCcCcCcCcCeBeBeBeBeBeBeBeBcCcCcC,dBdBdBdBdBdBdBdBdBdBdBdBdBdBdBdB,dBdBdBdBcAcAcAcAcAdBdBdBdBdBdBdBdBdBdBdBdBeBeBeBeBeBeBdBdBdBdBdBdBdBdBdBdBdBdBdBdBdBdBdBdBdBdBdBdAdAdAdAdAdAdAdAdAeBeBeBeBeBeBdBdB
D14,devprop,F02,famous,B,54,2041,FALSE,s004,x,x,dCdCdCdCdCcBcBcBcBcBcAcAcAcAcAdBdBdBdBdBdBeBeBeBeBeBeBeBeBeBeBeBeBeBeBeBeBeBeBdCdCdCdCdCdCdCdCdCdCdBdBdBdBdBdBdBdBdBdBdBdBdBdBcAcAcAcA,dBdBdBdBdBcBcBcBcAcAcAcAcCcCcCcCcCcBcAcAcAcCcCcCcCcCcBcA,x,dBdBdBdBdBcAcAcAcAcAcAcAeBeBeBeBeBeBeBeBcBcBcBcBcBcC,eBeBeBeBeBeBeBeBdBdBdBdBdBdBcAcAcAcAcAeBeBeBeBeBeBeBeBeBeBeBcBcBcBcBcCcCcCcCcC,dBdBdBdBdBdBdBdBdBdBdBdBdBdBdBdBdBdBcCdBdBdBdAdAdAdAdAdAdAdAdAdBdBdBdBdBdBeBeBeBeBeBeBeBeBeBeBeBdBdBdBdBcAcAcAcAcAcAcAcAcAcCcCcCcCcCcCcCcCcCcCdCdCdCdCdCdCdCdCdCdBdBdBdBdBcAcAcAcAcAcAcAcAcAcA,eBdBcBcCcCcCcCcCcCcCdCdCdCdCdCdCcCcCcCcCcCcCcCcCcCcCdCdBdCdCdCdCdCdCdCdCdCcCcCcCcCcCcCcBcB,eBfBfBfBfBfBeBeBeBeBeBeBdAdAeBeBeBeBeBeB,x,eBeBeBdBdBdBdBdBdBcAcAcAcAcAcAcAcAcAcAcAcAcAcAcA,cAcAcAcAcAcAcAcAcAcAcAcAcAcA,dBdBdBdBcCcCcCcCcCcCeBeBeBeBeBeBeBeBcCcCcC,dBdBdBdBdBdBdBdBdBdBdBdBdBdBdBdB,dBdBdBdBcAcAcAcAcAdBdBdBdBdBdBdBdBdBdBdBdBeBeBeBeBeBeBdBdBdBdBdBdBdBdBdBdBdBdBdBdBdBdBdBdBdBdBdBdAdAdAdAdAdAdAdAdAeBeBeBeBeBeBdBdB
D15,devprop,F02,famous,B,61,1467,TRUE,s005,dBdBdBdBdBcAcAcAcAcAcAcAeBeBeBeBeBeBeBeBcBcBcBcBcBcC,x,dCdCdCdCdCcBcBcBcBcBcAcAcAcAcAdBdBdBdBdBdBeBeBeBeBeBeBeBeBeBeBeBeBeBeBeBeBeBeBdCdCdCdCdCdCdCdCdCdCdBdBdBdBdBdBdBdBdBdBdBdBdBdBcAcAcAcA,dBdBdBdBdBcBcBcBcAcAcAcAcCcCcCcCcCcBcAcAcAcCcCcCcCcCcBcA,x,x,eBeBeBeBeBeBeBeBdBdBdBdBdBdBcAcAcAcAcAeBeBeBeBeBeBeBeBeBeBeBcBcBcBcBcCcCcCcCcC,dBdBdBdBdBdBdBdBdBdBdBdBdBdBdBdBdBdBcCdBdBdBdAdAdAdAdAdAdAdAdAdBdBdBdBdBdBeBeBeBeBeBeBeBeBeBeBeBdBdBdBdBcAcAcAcAcAcAcAcAcAcCcCcCcCcCcCcCcCcCcCdCdCdCdCdCdCdCdCdCdBdBdBdBdBcAcAcAcAcAcAcAcAcAcA,eBdBcBcCcCcCcCcCcCcCdCdCdCdCdCdCcCcCcCcCcCcCcCcCcCcCdCdBdCdCdCdCdCdCdCdCdCcCcCcCcCcCcCcBcB,eBfBfBfBfBfBeBeBeBeBeBeBdAdAeBeBeBeBeBeB,x,eBeBeBdBdBdBdBdBdBcAcAcAcAcAcAcAcAcAcAcAcAcAcAcA,cAcAcAcAcAcAcAcAcAcAcAcAcAcA,dBdBdBdBcCcCcCcCcCcCeBeBeBeBeBeBeBeBcCcCcC,dBdBdBdBdBdBdBdBdBdBdBdBdBdBdBdB,dBdBdBdBcAcAcAcAcAdBdBdBdBdBdBdBdBdBdBdBdBeBeBeBeBeBeBdBdBdBdBdBdBdBdBdBdBdBdBdBdBdBdBdBdBdBdBdBdAdAdAdAdAdAdAdAdAeBeBeBeBeBeBdBdB
D16,devprop,F02,famous,B,149,2119,TRUE,s006,eBeBeBeBeBeBeBeBdBdBdBdBdBdBcAcAcAcAcAeBeBeBeBeBeBeBeBeBeBeBcBcBcBcBcCcCcCcCcC,x,dCdCdCdCdCcBcBcBcBcBcAcAcAcAcAdBdBdBdBdBdBeBeBeBeBeBeBeBeBeBeBeBeBeBeBeBeBeBeBdCdCdCdCdCdCdCdCdCdCdBdBdBdBdBdBdBdBdBdBdBdBdBdBcAcAcAcA,dBdBdBdBdBcBcBcBcAcAcAcAcCcCcCcCcCcBcAcAcAcCcCcCcCcCcBcA,x,dBdBdBdBdBcAcAcAcAcAcAcAeBeBeBeBeBeBeBeBcBcBcBcBcBcC,x,dBdBdBdBdBdBdBdBdBdBdBdBdBdBdBdBdBdBcCdBdBdBdAdAdAdAdAdAdAdAdAdBdBdBdBdBdBeBeBeBeBeBeBeBeBeBeBeBdBdBdBdBcAcAcAcAcAcAcAcAcAcCcCcCcCcCcCcCcCcCcCdCdCdCdCdCdCdCdCdCdBdBdBdBdBcAcAcAcAcAcAcAcAcAcA,eBdBcBcCcCcCcCcCcCcCdCdCdCdCdCdCcCcCcCcCcCcCcCcCcCcCdCdBdCdCdCdCdCdCdCdCdCcCcCcCcCcCcCcBcB,eBfBfBfBfBfBeBeBeBeBeBeBdAdAeBeBeBeBeBeB,x,eBeBeBdBdBdBdBdBdBcAcAcAcAcAcAcAcAcAcAcAcAcAcAcA,cAcAcAcAcAcAcAcAcAcAcAcAcAcA,dBdBdBdBcCcCcCcCcCcCeBeBeBeBeBeBeBeBcCcCcC,dBdBdBdBdBdBdBdBdBdBdBdBdBdBdBdB,dBdBdBdBcAcAcAcAcAdBdBdBdBdBdBdBdBdBdBdBdBeBeBeBeBeBeBdBdBdBdBdBdBdBdBdBdBdBdBdBdBdBdBdBdBdBdBdBdAdAdAdAdAdAdAdAdAeBeBeBeBeBeBdBdB
D17,devprop,F02,famous,B,75,4797,TRUE,s007,dBdBdBdBdBdBdBdBdBdBdBdBdBdBdBdBdBdBcCdBdBdBdAdAdAdAdAdAdAdAdAdBdBdBdBdBdBeBeBeBeBeBeBeBeBeBeBeBdBdBdBdBcAcAcAcAcAcAcAcAcAcCcCcCcCcCcCcCcCcCcCdCdCdCdCdCdCdCdCdCdBdBdBdBdBcAcAcAcAcAcAcAcAcAcA,x,dCdCdCdCdCcBcBcBcBcBcAcAcAcAcAdBdBdBdBdBdBeBeBeBeBeBeBeBeBeBeBeBeBeBeBeBeBeBeBdCdCdCdCdCdCdCdCdCdCdBdBdBdBdBdBdBdBdBdBdBdBdBdBcAcAcAcA,dBdBdBdBdBcBcBcBcAcAcAcAcCcCcCcCcCcBcAcAcAcCcCcCcCcCcBcA,x,dBdBdBdBdBcAcAcAcAcAcAcAeBeBeBeBeBeBeBeBcBcBcBcBcBcC,eBeBeBeBeBeBeBeBdBdBdBdBdBdBcAcAcAcAcAeBeBeBeBeBeBeBeBeBeBeBcBcBcBcBcCcCcCcCcC,x,eBdBcBcCcCcCcCcCcCcCdCdCdCdCdCdCcCcCcCcCcCcCcCcCcCcCdCdBdCdCdCdCdCdCdCdCdCcCcCcCcCcCcCcBcB,eBfBfBfBfBfBeBeBeBeBeBeBdAdAeBeBeBeBeBeB,x,eBeBeBdBdBdBdBdBdBcAcAcAcAcAcAcAcAcAcAcAcAcAcAcA,cAcAcAcAcAcAcAcAcAcAcAcAcAcA,dBdBdBdBcCcCcCcCcCcCeBeBeBeBeBeBeBeBcCcCcC,dBdBdBdBdBdBdBdBdBdBdBdBdBdBdBdB,dBdBdBdBcAcAcAcAcAdBdBdBdBdBdBdBdBdBdBdBdBeBeBeBeBeBeBdBdBdBdBdBdBdBdBdBdBdBdBdBdBdBdBdBdBdBdBdBdAdAdAdAdAdAdAdAdAeBeBeBeBeBeBdBdB
D18,devprop,F02,famous,B,127,2205,TRUE,s008,eBdBcBcCcCcCcCcCcCcCdCdCdCdCdCdCcCcCcCcCcCcCcCcCcCcCdCdBdCdCdCdCdCdCdCdCdCcCcCcCcCcCcCcBcB,x,dCdCdCdCdCcBcBcBcBcBcAcAcAcAcAdBdBdBdBdBdBeBeBeBeBeBeBeBeBeBeBeBeBeBeBeBeBeBeBdCdCdCdCdCdCdCdCdCdCdBdBdBdBdBdBdBdBdBdBdBdBdBdBcAcAcAcA,dBdBdBdBdBcBcBcBcAcAcAcAcCcCcCcCcCcBcAcAcAcCcCcCcCcCcBcA,x,dBdBdBdBdBcAcAcAcAcAcAcAeBeBeBeBeBeBeBeBcBcBcBcBcBcC,eBeBeBeBeBeBeBeBdBdBdBdBdBdBcAcAcAcAcAeBeBeBeBeBeBeBeBeBeBeBcBcBcBcBcCcCcCcCcC,dBdBdBdBdBdBdBdBdBdBdBdBdBdBdBdBdBdBcCdBdBdBdAdAdAdAdAdAdAdAdAdBdBdBdBdBdBeBeBeBeBeBeBeBeBeBeBeBdBdBdBdBcAcAcAcAcAcAcAcAcAcCcCcCcCcCcCcCcCcCcCdCdCdCdCdCdCdCdCdCdBdBdBdBdBcAcAcAcAcAcAcAcAcAcA,x,eBfBfBfBfBfBeBeBeBeBeBeBdAdAeBeBeBeBeBeB,x,eBeBeBdBdBdBdBdBdBcAcAcAcAcAcAcAcAcAcAcAcAcAcAcA,cAcAcAcAcAcAcAcAcAcAcAcAcAcA,dBdBdBdBcCcCcCcCcCcCeBeBeBeBeBeBeBeBcCcCcC,dBdBdBdBdBdBdBdBdBdBdBdBdBdBdBdB,dBdBdBdBcAcAcAcAcAdBdBdBdBdBdBdBdBdBdBdBdBeBeBeBeBeBeBdBdBdBdBdBdBdBdBdBdBdBdBdBdBdBdBdBdBdBdBdBdAdAdAdAdAdAdAdAdAeBeBeBeBeBeBdBdB
D90,devprop,F02,famous,B,70,1143,TRUE,s009,eBfBfBfBfBfBeBeBeBeBeBeBdAdAeBeBeBeBeBeB,x,dCdCdCdCdCcBcBcBcBcBcAcAcAcAcAdBdBdBdBdBdBeBeBeBeBeBeBeBeBeBeBeBeBeBeBeBeBeBeBdCdCdCdCdCdCdCdCdCdCdBdBdBdBdBdBdBdBdBdBdBdBdBdBcAcAcAcA,dBdBdBdBdBcBcBcBcAcAcAcAcCcCcCcCcCcBcAcAcAcCcCcCcCcCcBcA,x,dBdBdBdBdBcAcAcAcAcAcAcAeBeBeBeBeBeBeBeBcBcBcBcBcBcC,eBeBeBeBeBeBeBeBdBdBdBdBdBdBcAcAcAcAcAeBeBeBeBeBeBeBeBeBeBeBcBcBcBcBcCcCcCcCcC,dBdBdBdBdBdBdBdBdBdBdBdBdBdBdBdBdBdBcCdBdBdBdAdAdAdAdAdAdAdAdAdBdBdBdBdBdBeBeBeBeBeBeBeBeBeBeBeBdBdBdBdBcAcAcAcAcAcAcAcAcAcCcCcCcCcCcCcCcCcCcCdCdCdCdCdCdCdCdCdCdBdBdBdBdBcAcAcAcAcAcAcAcAcAcA,eBdBcBcCcCcCcCcCcCcCdCdCdCdCdCdCcCcCcCcCcCcCcCcCcCcCdCdBdCdCdCdCdCdCdCdCdCcCcCcCcCcCcCcBcB,x,x,eBeBeBdBdBdBdBdBdBcAcAcAcAcAcAcAcAcAcAcAcAcAcAcA,cAcAcAcAcAcAcAcAcAcAcAcAcAcA,dBdBdBdBcCcCcCcCcCcCeBeBeBeBeBeBeBeBcCcCcC,dBdBdBdBdBdBdBdBdBdBdBdBdBdBdBdB,dBdBdBdBcAcAcAcAcAdBdBdBdBdBdBdBdBdBdBdBdBeBeBeBeBeBeBdBdBdBdBdBdBdBdBdBdBdBdBdBdBdBdBdBdBdBdBdBdAdAdAdAdAdAdAdAdAeBeBeBeBeBeBdBdB
D91,devprop,F02,famous,B,117,2818,FALSE,s010,x,x,dCdCdCdCdCcBcBcBcBcBcAcAcAcAcAdBdBdBdBdBdBeBeBeBeBeBeBeBeBeBeBeBeBeBeBeBeBeBeBdCdCdCdCdCdCdCdCdCdCdBdBdBdBdBdBdBdBdBdBdBdBdBdBcAcAcAcA,dBdBdBdBdBcBcBcBcAcAcAcAcCcCcCcCcCcBcAcAcAcCcCcCcCcCcBcA,x,dBdBdBdBdBcAcAcAcAcAcAcAeBeBeBeBeBeBeBeBcBcBcBcBcBcC,eBeBeBeBeBeBeBeBdBdBdBdBdBdBcAcAcAcAcAeBeBeBeBeBeBeBeBeBeBeBcBcBcBcBcCcCcCcCcC,dBdBdBdBdBdBdBdBdBdBdBdBdBdBdBdBdBdBcCdBdBdBdAdAdAdAdAdAdAdAdAdBdBdBdBdBdBeBeBeBeBeBeBeBeBeBeBeBdBdBdBdBcAcAcAcAcAcAcAcAcAcCcCcCcCcCcCcCcCcCcCdCdCdCdCdCdCdCdCdCdBdBdBdBdBcAcAcAcAcAcAcAcAcAcA,eBdBcBcCcCcCcCcCcCcCdCdCdCdCdCdCcCcCcCcCcCcCcCcCcCcCdCdBdCdCdCdCdCdCdCdCdCcCcCcCcCcCcCcBcB,eBfBfBfBfBfBeBeBeBeBeBeBdAdAeBeBeBeBeBeB,x,eBeBeBdBdBdBdBdBdBcAcAcAcAcAcAcAcAcAcAcAcAcAcAcA,cAcAcAcAcAcAcAcAcAcAcAcAcAcA,dBdBdBdBcCcCcCcCcCcCeBeBeBeBeBeBeBeBcCcCcC,dBdBdBdBdBdBdBdBdBdBdBdBdBdBdBdB,dBdBdBdBcAcAcAcAcAdBdBdBdBdBdBdBdBdBdBdBdBeBeBeBeBeBeBdBdBdBdBdBdBdBdBdBdBdBdBdBdBdBdBdBdBdBdBdBdAdAdAdAdAdAdAdAdAeBeBeBeBeBeBdBdB
D92,devprop,F02,famous,B,41,1433,TRUE,s011,eBeBeBdBdBdBdBdBdBcAcAcAcAcAcAcAcAcAcAcAcAcAcAcA,x,dCdCdCdCdCcBcBcBcBcBcAcAcAcAcAdBdBdBdBdBdBeBeBeBeBeBeBeBeBeBeBeBeBeBeBeBeBeBeBdCdCdCdCdCdCdCdCdCdCdBdBdBdBdBdBdBdBdBdBdBdBdBdBcAcAcAcA,dBdBdBdBdBcBcBcBcAcAcAcAcCcCcCcCcCcBcAcAcAcCcCcCcCcCcBcA,x,dBdBdBdBdBcAcAcAcAcAcAcAeBeBeBeBeBeBeBeBcBcBcBcBcBcC,eBeBeBeBeBeBeBeBdBdBdBdBdBdBcAcAcAcAcAeBeBeBeBeBeBeBeBeBeBeBcBcBcBcBcCcCcCcCcC,dBdBdBdBdBdBdBdBdBdBdBdBdBdBdBdBdBdBcCdBdBdBdAdAdAdAdAdAdAdAdAdBdBdBdBdBdBeBeBeBeBeBeBeBeBeBeBeBdBdBdBdBcAcAcAcAcAcAcAcAcAcCcCcCcCcCcCcCcCcCcCdCdCdCdCdCdCdCdCdCdBdBdBdBdBcAcAcAcAcAcAcAcAcAcA,eBdBcBcCcCcCcCcCcCcCdCdCdCdCdCdCcCcCcCcCcCcCcCcCcCcCdCdBdCdCdCdCdCdCdCdCdCcCcCcCcCcCcCcBcB,eBfBfBfBfBfBeBeBeBeBeBeBdAdAeBeBeBeBeBeB,x,x,cAcAcAcAcAcAcAcAcAcAcAcAcAcA,dBdBdBdBcCcCcCcCcCcCeBeBeBeBeBeBeBeBcCcCcC,dBdBdBdBdBdBdBdBdBdBdBdBdBdBdBdB,dBdBdBdBcAcAcAcAcAdBdBdBdBdBdBdBdBdBdBdBdBeBeBeBeBeBeBdBdBdBdBdBdBdBdBdBdBdBdBdBdBdBdBdBdBdBdBdBdAdAdAdAdAdAdAdAdAeBeBeBeBeBeBdBdB
D93,devprop,F02,famous,B,93,884,TRUE,s012,cAcAcAcAcAcAcAcAcAcAcAcAcAcA,x,dCdCdCdCdCcBcBcBcBcBcAcAcAcAcAdBdBdBdBdBdBeBeBeBeBeBeBeBeBeBeBeBeBeBeBeBeBeBeBdCdCdCdCdCdCdCdCdCdCdBdBdBdBdBdBdBdBdBdBdBdBdBdBcAcAcAcA,dBdBdBdBdBcBcBcBcAcAcAcAcCcCcCcCcCcBcAcAcAcCcCcCcCcCcBcA,x,dBdBdBdBdBcAcAcAcAcAcAcAeBeBeBeBeBeBeBeBcBcBcBcBcBcC,eBeBeBeBeBeBeBeBdBdBdBdBdBdBcAcAcAcAcAeBeBeBeBeBeBeBeBeBeBeBcBcBcBcBcCcCcCcCcC,dBdBdBdBdBdBdBdBdBdBdBdBdBdBdBdBdBdBcCdBdBdBdAdAdAdAdAdAdAdAdAdBdBdBdBdBdBeBeBeBeBeBeBeBeBeBeBeBdBdBdBdBcAcAcAcAcAcAcAcAcAcCcCcCcCcCcCcCcCcCcCdCdCdCdCdCdCdCdCdCdBdBdBdBdBcAcAcAcAcAcAcAcAcAcA,eBdBcBcCcCcCcCcCcCcCdCdCdCdCdCdCcCcCcCcCcCcCcCcCcCcCdCdBdCdCdCdCdCdCdCdCdCcCcCcCcCcCcCcBcB,eBfBfBfBfBfBeBeBeBeBeBeBdAdAeBeBeBeBeBeB,x,eBeBeBdBdBdBdBdBdBcAcAcAcAcAcAcAcAcAcAcAcAcAcAcA,x,dBdBdBdBcCcCcCcCcCcCeBeBeBeBeBeBeBeBcCcCcC,dBdBdBdBdBdBdBdBdBdBdBdBdBdBdBdB,dBdBdBdBcAcAcAcAcAdBdBdBdBdBdBdBdBdBdBdBdBeBeBeBeBeBeBdBdBdBdBdBdBdBdBdBdBdBdBdBdBdBdBdBdBdBdBdBdAdAdAdAdAdAdAdAdAeBeBeBeBeBeBdBdB
D94,devprop,F02,famous,B,45,1007,TRUE,s013,dBdBdBdBcCcCcCcCcCcCeBeBeBeBeBeBeBeBcCcCcC,x,dCdCdCdCdCcBcBcBcBcBcAcAcAcAcAdBdBdBdBdBdBeBeBeBeBeBeBeBeBeBeBeBeBeBeBeBeBeBeBdCdCdCdCdCdCdCdCdCdCdBdBdBdBdBdBdBdBdBdBdBdBdBdBcAcAcAcA,dBdBdBdBdBcBcBcBcAcAcAcAcCcCcCcCcCcBcAcAcAcCcCcCcCcCcBcA,x,dBdBdBdBdBcAcAcAcAcAcAcAeBeBeBeBeBeBeBeBcBcBcBcBcBcC,eBeBeBeBeBeBeBeBdBdBdBdBdBdBcAcAcAcAcAeBeBeBeBeBeBeBeBeBeBeBcBcBcBcBcCcCcCcCcC,dBdBdBdBdBdBdBdBdBdBdBdBdBdBdBdBdBdBcCdBdBdBdAdAdAdAdAdAdAdAdAdBdBdBdBdBdBeBeBeBeBeBeBeBeBeBeBeBdBdBdBdBcAcAcAcAcAcAcAcAcAcCcCcCcCcCcCcCcCcCcCdCdCdCdCdCdCdCdCdCdBdBdBdBdBcAcAcAcAcAcAcAcAcAcA,eBdBcBcCcCcCcCcCcCcCdCdCdCdCdCdCcCcCcCcCcCcCcCcCcCcCdCdBdCdCdCdCdCdCdCdCdCcCcCcCcCcCcCcBcB,eBfBfBfBfBfBeBeBeBeBeBeBdAdAeBeBeBeBeBeB,x,eBeBeBdBdBdBdBdBdBcAcAcAcAcAcAcAcAcAcAcAcAcAcAcA,cAcAcAcAcAcAcAcAcAcAcAcAcAcA,x,dBdBdBdBdBdBdBdBdBdBdBdBdBdBdBdB,dBdBdBdBcAcAcAcAcAdBdBdBdBdBdBdBdBdBdBdBdBeBeBeBeBeBeBdBdBdBdBdBdBdBdBdBdBdBdBdBdBdBdBdBdBdBdBdBdAdAdAdAdAdAdAdAdAeBeBeBeBeBeBdBdB
D95,devprop,F02,famous,B,108,778,TRUE,s014,dBdBdBdBdBdBdBdBdBdBdBdBdBdBdBdB,x,dCdCdCdCdCcBcBcBcBcBcAcAcAcAcAdBdBdBdBdBdBeBeBeBeBeBeBeBeBeBeBeBeBeBeBeBeBeBeBdCdCdCdCdCdCdCdCdCdCdBdBdBdBdBdBdBdBdBdBdBdBdBdBcAcAcAcA,dBdBdBdBdBcBcBcBcAcAcAcAcCcCcCcCcCcBcAcAcAcCcCcCcCcCcBcA,x,dBdBdBdBdBcAcAcAcAcAcAcAeBeBeBeBeBeBeBeBcBcBcBcBcBcC,eBeBeBeBeBeBeBeBdBdBdBdBdBdBcAcAcAcAcAeBeBeBeBeBeBeBeBeBeBeBcBcBcBcBcCcCcCcCcC,dBdBdBdBdBdBdBdBdBdBdBdBdBdBdBdBdBdBcCdBdBdBdAdAdAdAdAdAdAdAdAdBdBdBdBdBdBeBeBeBeBeBeBeBeBeBeBeBdBdBdBdBcAcAcAcAcAcAcAcAcAcCcCcCcCcCcCcCcCcCcCdCdCdCdCdCdCdCdCdCdBdBdBdBdBcAcAcAcAcAcAcAcAcAcA,eBdBcBcCcCcCcCcCcCcCdCdCdCdCdCdCcCcCcCcCcCcCcCcCcCcCdCdBdCdCdCdCdCdCdCdCdCcCcCcCcCcCcCcBcB,eBfBfBfBfBfBeBeBeBeBeBeBdAdAeBeBeBeBeBeB,x,eBeBeBdBdBdBdBdBdBcAcAcAcAcAcAcAcAcAcAcAcAcAcAcA,cAcAcAcAcAcAcAcAcAcAcAcAcAcA,dBdBdBdBcCcCcCcCcCcCeBeBeBeBeBeBeBeBcCcCcC,x,dBdBdBdBcAcAcAcAcAdBdBdBdBdBdBdBdBdBdBdBdBeBeBeBeBeBeBdBdBdBdBdBdBdBdBdBdBdBdBdBdBdBdBdBdBdBdBdBdAdAdAdAdAdAdAdAdAeBeBeBeBeBeBdBdB
D96,devprop,F02,famous,B,96,3371,TRUE,s015,dBdBdBdBcAcAcAcAcAdBdBdBdBdBdBdBdBdBdBdBdBeBeBeBeBeBeBdBdBdBdBdBdBdBdBdBdBdBdBdBdBdBdBdBdBdBdBdBdAdAdAdAdAdAdAdAdAeBeBeBeBeBeBdBdB,x,dCdCdCdCdCcBcBcBcBcBcAcAcAcAcAdBdBdBdBdBdBeBeBeBeBeBeBeBeBeBeBeBeBeBeBeBeBeBeBdCdCdCdCdCdCdCdCdCdCdBdBdBdBdBdBdBdBdBdBdBdBdBdBcAcAcAcA,dBdBdBdBdBcBcBcBcAcAcAcAcCcCcCcCcCcBcAcAcAcCcCcCcCcCcBcA,x,dBdBdBdBdBcAcAcAcAcAcAcAeBeBeBeBeBeBeBeBcBcBcBcBcBcC,eBeBeBeBeBeBeBeBdBdBdBdBdBdBcAcAcAcAcAeBeBeBeBeBeBeBeBeBeBeBcBcBcBcBcCcCcCcCcC,dBdBdBdBdBdBdBdBdBdBdBdBdBdBdBdBdBdBcCdBdBdBdAdAdAdAdAdAdAdAdAdBdBdBdBdBdBeBeBeBeBeBeBeBeBeBeBeBdBdBdBdBcAcAcAcAcAcAcAcAcAcCcCcCcCcCcCcCcCcCcCdCdCdCdCdCdCdCdCdCdBdBdBdBdBcAcAcAcAcAcAcAcAcAcA,eBdBcBcCcCcCcCcCcCcCdCdCdCdCdCdCcCcCcCcCcCcCcCcCcCcCdCdBdCdCdCdCdCdCdCdCdCcCcCcCcCcCcCcBcB,eBfBfBfBfBfBeBeBeBeBeBeBdAdAeBeBeBeBeBeB,x,eBeBeBdBdBdBdBdBdBcAcAcAcAcAcAcAcAcAcAcAcAcAcAcA,cAcAcAcAcAcAcAcAcAcAcAcAcAcA,dBdBdBdBcCcCcCcCcCcCeBeBeBeBeBeBeBeBcCcCcC,dBdBdBdBdBdBdBdBdBdBdBdBdBdBdBdB,x
D06,devprop,F02,famous,C,153,2272,FALSE,s001,x,x,cBcBcBcBcBcBcBcBcBdBdBdBdBeBeBeBeBeBeBeBeBeBdBdBdBdBdBdBdBdBdBdAdAdAdAdAdAeBeBeBeBeBeBeBeBeBeBeBeBeBeBeBeBdBdBdBdBdAdAdAdAdAdAdAeBeBeBeBeBeBeBcA,cBcBcBcBcAcAcAcAcAcAdBdBdBdBdBdBeBeBeBeBdBdBdBdBdBdBdBdBdBdBdBdBdBdBdBdBdBdBdBdBdAdAdAeBeBeBeBeBeBeBeBeBeBcAcAcAcAdBdBdBdBdBdBdBdBdBdAdAdBdBdAdAdAdAdAeBeBeBeBeBeBdBdBdBdBdBdBdBdBdBdBdBdBdBdBeBeB,x,cAcAcAcAcAcAcAcAcAcAcAeBeBeBeBeB,cBcBcBcBeBeBdBdBdBdBdBeBdBeBeBeBeBcBcBcBcBcCcCcCcCcAcAcAcAcAcAbBbBbBbBbBeBeBeBeBeBeBeBeBeBeBeBeBeBeBeBcBcBcBcBcCcCcCcCcCcCcAcAcAcAcAaBaBaBaBaBaBaBaBaBaBaBaBaBaBaBaBdBdBdBdBdBdBeBeBeBeBeBeBdBdB,dBdBdBdBdBdBdBdBdBdBcAcAcAcAcAcCcCcCcCcCcCcCdBdBdBdBdBdBeBeBeBeBeBcAcAcAcBcBcAcAcAcAcAcAcAcAcBcBcBcBcBcBcBcBcB,x,cBdBdBdBeBeBeBeBeBeBeBeBeBdB,x,cBcBcBcBcBcBeBeBeBeBeBeBeBeBeBeBeBdBdBdBdBdBdBdBdBdBdB,cAcAcAcAcAcAcAcAcAcAcAcAcAcAcAcAcAcAcAcAcAcAcAeBeBeBeBeBeBeB,bBbBbBcCcCcCcCdBeBeBeBeBeBeBeBeBeBeBeBeB,dAdAdAdAcBdBcBcBdBcCcCcCcCcCeBdBeBeBeBdBcAcAcAcAcAcAcAcAcAcAcAcCcCcCcC,cBcBcBcBcBdBdBdBdBdBdBdBdBdBdBdBdBdBdBdAdAdAdAcAcAcAcAbBbBbBbBbBbBeBeBeBeBeBeBeBeBdBdBdBdBdAdAdAdAdAdBdBdBdBdBdBeBeBeBeBeBdAdAdAdAdAdAdBdBdB
D08,devprop,F02,famous,C,46,3839,TRUE,s002,cBcBcBcBcBcBcBcBcBdBdBdBdBeBeBeBeBeBeBeBeBeBdBdBdBdBdBdBdBdBdBdAdAdAdAdAdAeBeBeBeBeBeBeBeBeBeBeBeBeBeBeBeBdBdBdBdBdAdAdAdAdAdAdAeBeBeBeBeBeBeBcA,x,x,cBcBcBcBcAcAcAcAcAcAdBdBdBdBdBdBeBeBeBeBdBdBdBdBdBdBdBdBdBdBdBdBdBdBdBdBdBdBdBdBdAdAdAeBeBeBeBeBeBeBeBeBeBcAcAcAcAdBdBdBdBdBdBdBdBdBdAdAdBdBdAdAdAdAdAeBeBeBeBeBeBdBdBdBdBdBdBdBdBdBdBdBdBdBdBeBeB,x,cAcAcAcAcAcAcAcAcAcAcAeBeBeBeBeB,cBcBcBcBeBeBdBdBdBdBdBeBdBeBeBeBeBcBcBcBcBcCcCcCcCcAcAcAcAcAcAbBbBbBbBbBeBeBeBeBeBeBeBeBeBeBeBeBeBeBeBcBcBcBcBcCcCcCcCcCcCcAcAcAcAcAaBaBaBaBaBaBaBaBaBaBaBaBaBaBaBaBdBdBdBdBdBdBeBeBeBeBeBeBdBdB,dBdBdBdBdBdBdBdBdBdBcAcAcAcAcAcCcCcCcCcCcCcCdBdBdBdBdBdBeBeBeBeBeBcAcAcAcBcBcAcAcAcAcAcAcAcAcBcBcBcBcBcBcBcBcB,x,cBdBdBdBeBeBeBeBeBeBeBeBeBdB,x,cBcBcBcBcBcBeBeBeBeBeBeBeBeBeBeBeBdBdBdBdBdBdBdBdBdBdB,cAcAcAcAcAcAcAcAcAcAcAcAcAcAcAcAcAcAcAcAcAcAcAeBeBeBeBeBeBeB,bBbBbBcCcCcCcCdBeBeBeBeBeBeBeBeBeBeBeBeB,dAdAdAdAcBdBcBcBdBcCcCcCcCcCeBdBeBeBeBdBcAcAcAcAcAcAcAcAcAcAcAcCcCcCcC,cBcBcBcBcBdBdBdBdBdBdBdBdBdBdBdBdBdBdBdAdAdAdAcAcAcAcAbBbBbBbBbBbBeBeBeBeBeBeBeBeBdBdBdBdBdAdAdAdAdAdBdBdBdBdBdBeBeBeBeBeBdAdAdAdAdAdAdBdBdB
D13,devprop,F02,famous,C,72,5542,TRUE,s003,cBcBcBcBcAcAcAcAcAcAdBdBdBdBdBdBeBeBeBeBdBdBdBdBdBdBdBdBdBdBdBdBdBdBdBdBdBdBdBdBdAdAdAeBeBeBeBeBeBeBeBeBeBcAcAcAcAdBdBdBdBdBdBdBdBdBdAdAdBdBdAdAdAdAdAeBeBeBeBeBeBdBdBdBdBdBdBdBdBdBdBdBdBdBdBeBeB,x,cBcBcBcBcBcBcBcBcBdBdBdBdBeBeBeBeBeBeBeBeBeBdBdBdBdBdBdBdBdBdBdAdAdAdAdAdAeBeBeBeBeBeBeBeBeBeBeBeBeBeBeBeBdBdBdBdBdAdAdAdAdAdAdAeBeBeBeBeBeBeBcA,x,x,cAcAcAcAcAcAcAcAcAcAcAeBeBeBeBeB,cBcBcBcBeBeBdBdBdBdBdBeBdBeBeBeBeBcBcBcBcBcCcCcCcCcAcAcAcAcAcAbBbBbBbBbBeBeBeBeBeBeBeBeBeBeBeBeBeBeBeBcBcBcBcBcCcCcCcCcCcCcAcAcAcAcAaBaBaBaBaBaBaBaBaBaBaBaBaBaBaBaBdBdBdBdBdBdBeBeBeBeBeBeBdBdB,dBdBdBdBdBdBdBdBdBdBcAcAcAcAcAcCcCcCcCcCcCcCdBdBdBdBdBdBeBeBeBeBeBcAcAcAcBcBcAcAcAcAcAcAcAcAcBcBcBcBcBcBcBcBcB,x,cBdBdBdBeBeBeBeBeBeBeBeBeBdB,x,cBcBcBcBcBcBeBeBeBeBeBeBeBeBeBeBeBdBdBdBdBdBdBdBdBdBdB,cAcAcAcAcAcAcAcAcAcAcAcAcAcAcAcAcAcAcAcAcAcAcAeBeBeBeBeBeBeB,bBbBbBcCcCcCcCdBeBeBeBeBeBeBeBeBeBeBeBeB,dAdAdAdAcBdBcBcBdBcCcCcCcCcCeBdBeBeBeBdBcAcAcAcAcAcAcAcAcAcAcAcCcCcCcC,cBcBcBcBcBdBdBdBdBdBdBdBdBdBdBdBdBdBdBdAdAdAdAcAcAcAcAbBbBbBbBbBbBeBeBeBeBeBeBeBeBdBdBdBdBdAdAdAdAdAdBdBdBdBdBdBeBeBeBeBeBdAdAdAdAdAdAdBdBdB
D14,devprop,F02,famous,C,126,1504,FALSE,s004,x,x,cBcBcBcBcBcBcBcBcBdBdBdBdBeBeBeBeBeBeBeBeBeBdBdBdBdBdBdBdBdBdBdAdAdAdAdAdAeBeBeBeBeBeBeBeBeBeBeBeBeBeBeBeBdBdBdBdBdAdAdAdAdAdAdAeBeBeBeBeBeBeBcA,cBcBcBcBcAcAcAcAcAcAdBdBdBdBdBdBeBeBeBeBdBdBdBdBdBdBdBdBdBdBdBdBdBdBdBdBdBdBdBdBdAdAdAeBeBeBeBeBeBeBeBeBeBcAcAcAcAdBdBdBdBdBdBdBdBdBdAdAdBdBdAdAdAdAdAeBeBeBeBeBeBdBdBdBdBdBdBdBdBdBdBdBdBdBdBeBeB,x,cAcAcAcAcAcAcAcAcAcAcAeBeBeBeBeB,cBcBcBcBeBeBdBdBdBdBdBeBdBeBeBeBeBcBcBcBcBcCcCcCcCcAcAcAcAcAcAbBbBbBbBbBeBeBeBeBeBeBeBeBeBeBeBeBeBeBeBcBcBcBcBcCcCcCcCcCcCcAcAcAcAcAaBaBaBaBaBaBaBaBaBaBaBaBaBaBaBaBdBdBdBdBdBdBeBeBeBeBeBeBdBdB,dBdBdBdBdBdBdBdBdBdBcAcAcAcAcAcCcCcCcCcCcCcCdBdBdBdBdBdBeBeBeBeBeBcAcAcAcBcBcAcAcAcAcAcAcAcAcBcBcBcBcBcBcBcBcB,x,cBdBdBdBeBeBeBeBeBeBeBeBeBdB,x,cBcBcBcBcBcBeBeBeBeBeBeBeBeBeBeBeBdBdBdBdBdBdBdBdBdBdB,cAcAcAcAcAcAcAcAcAcAcAcAcAcAcAcAcAcAcAcAcAcAcAeBeBeBeBeBeBeB,bBbBbBcCcCcCcCdBeBeBeBeBeBeBeBeBeBeBeBeB,dAdAdAdAcBdBcBcBdBcCcCcCcCcCeBdBeBeBeBdBcAcAcAcAcAcAcAcAcAcAcAcCcCcCcC,cBcBcBcBcBdBdBdBdBdBdBdBdBdBdBdBdBdBdBdAdAdAdAcAcAcAcAbBbBbBbBbBbBeBeBeBeBeBeBeBeBdBdBdBdBdAdAdAdAdAdBdBdBdBdBdBeBeBeBeBeBdAdAdAdAdAdAdBdBdB
D15,devprop,F02,famous,C,63,954,TRUE,s005,cAcAcAcAcAcAcAcAcAcAcAeBeBeBeBeB,x,cBcBcBcBcBcBcBcBcBdBdBdBdBeBeBeBeBeBeBeBeBeBdBdBdBdBdBdBdBdBdBdAdAdAdAdAdAeBeBeBeBeBeBeBeBeBeBeBeBeBeBeBeBdBdBdBdBdAdAdAdAdAdAdAeBeBeBeBeBeBeBcA,cBcBcBcBcAcAcAcAcAcAdBdBdBdBdBdBeBeBeBeBdBdBdBdBdBdBdBdBdBdBdBdBdBdBdBdBdBdBdBdBdAdAdAeBeBeBeBeBeBeBeBeBeBcAcAcAcAdBdBdBdBdBdBdBdBdBdAdAdBdBdAdAdAdAdAeBeBeBeBeBeBdBdBdBdBdBdBdBdBdBdBdBdBdBdBeBeB,x,x,cBcBcBcBeBeBdBdBdBdBdBeBdBeBeBeBeBcBcBcBcBcCcCcCcCcAcAcAcAcAcAbBbBbBbBbBeBeBeBeBeBeBeBeBeBeBeBeBeBeBeBcBcBcBcBcCcCcCcCcCcCcAcAcAcAcAaBaBaBaBaBaBaBaBaBaBaBaBaBaBaBaBdBdBdBdBdBdBeBeBeBeBeBeBdBdB,dBdBdBdBdBdBdBdBdBdBcAcAcAcAcAcCcCcCcCcCcCcCdBdBdBdBdBdBeBeBeBeBeBcAcAcAcBcBcAcAcAcAcAcAcAcAcBcBcBcBcBcBcBcBcB,x,cBdBdBdBeBeBeBeBeBeBeBeBeBdB,x,cBcBcBcBcBcBeBeBeBeBeBeBeBeBeBeBeBdBdBdBdBdBdBdBdBdBdB,cAcAcAcAcAcAcAcAcAcAcAcAcAcAcAcAcAcAcAcAcAcAcAeBeBeBeBeBeBeB,bBbBbBcCcCcCcCdBeBeBeBeBeBeBeBeBeBeBeBeB,dAdAdAdAcBdBcBcBdBcCcCcCcCcCeBdBeBeBeBdBcAcAcAcAcAcAcAcAcAcAcAcCcCcCcC,cBcBcBcBcBdBdBdBdBdBdBdBdBdBdBdBdBdBdBdAdAdAdAcAcAcAcAbBbBbBbBbBbBeBeBeBeBeBeBeBeBdBdBdBdBdAdAdAdAdAdBdBdBdBdBdBeBeBeBeBeBdAdAdAdAdAdAdBdBdB
D16,devprop,F02,famous,C,78,6950,TRUE,s006,cBcBcBcBeBeBdBdBdBdBdBeBdBeBeBeBeBcBcBcBcBcCcCcCcCcAcAcAcAcAcAbBbBbBbBbBeBeBeBeBeBeBeBeBeBeBeBeBeBeBeBcBcBcBcBcCcCcCcCcCcCcAcAcAcAcAaBaBaBaBaBaBaBaBaBaBaBaBaBaBaBaBdBdBdBdBdBdBeBeBeBeBeBeBdBdB,x,cBcBcBcBcBcBcBcBcBdBdBdBdBeBeBeBeBeBeBeBeBeBdBdBdBdBdBdBdBdBdBdAdAdAdAdAdAeBeBeBeBeBeBeBeBeBeBeBeBeBeBeBeBdBdBdBdBdAdAdAdAdAdAdAeBeBeBeBeBeBeBcA,cBcBcBcBcAcAcAcAcAcAdBdBdBdBdBdBeBeBeBeBdBdBdBdBdBdBdBdBdBdBdBdBdBdBdBdBdBdBdBdBdAdAdAeBeBeBeBeBeBeBeBeBeBcAcAcAcAdBdBdBdBdBdBdBdBdBdAdAdBdBdAdAdAdAdAeBeBeBeBeBeBdBdBdBdBdBdBdBdBdBdBdBdBdBdBeBeB,x,cAcAcAcAcAcAcAcAcAcAcAeBeBeBeBeB,x,dBdBdBdBdBdBdBdBdBdBcAcAcAcAcAcCcCcCcCcCcCcCdBdBdBdBdBdBeBeBeBeBeBcAcAcAcBcBcAcAcAcAcAcAcAcAcBcBcBcBcBcBcBcBcB,x,cBdBdBdBeBeBeBeBeBeBeBeBeBdB,x,cBcBcBcBcBcBeBeBeBeBeBeBeBeBeBeBeBdBdBdBdBdBdBdBdBdBdB,cAcAcAcAcAcAcAcAcAcAcAcAcAcAcAcAcAcAcAcAcAcAcAeBeBeBeBeBeBeB,bBbBbBcCcCcCcCdBeBeBeBeBeBeBeBeBeBeBeBeB,dAdAdAdAcBdBcBcBdBcCcCcCcCcCeBdBeBeBeBdBcAcAcAcAcAcAcAcAcAcAcAcCcCcCcC,cBcBcBcBcBdBdBdBdBdBdBdBdBdBdBdBdBdBdBdAdAdAdAcAcAcAcAbBbBbBbBbBbBeBeBeBeBeBeBeBeBdBdBdBdBdAdAdAdAdAdBdBdBdBdBdBeBeBeBeBeBdAdAdAdAdAdAdBdBdB
D17,devprop,F02,famous,C,17,2955,TRUE,s007,dBdBdBdBdBdBdBdBdBdBcAcAcAcAcAcCcCcCcCcCcCcCdBdBdBdBdBdBeBeBeBeBeBcAcAcAcBcBcAcAcAcAcAcAcAcAcBcBcBcBcBcBcBcBcB,x,cBcBcBcBcBcBcBcBcBdBdBdBdBeBeBeBeBeBeBeBeBeBdBdBdBdBdBdBdBdBdBdAdAdAdAdAdAeBeBeBeBeBeBeBeBeBeBeBeBeBeBeBeBdBdBdBdBdAdAdAdAdAdAdAeBeBeBeBeBeBeBcA,cBcBcBcBcAcAcAcAcAcAdBdBdBdBdBdBeBeBeBeBdBdBdBdBdBdBdBdBdBdBdBdBdBdBdBdBdBdBdBdBdAdAdAeBeBeBeBeBeBeBeBeBeBcAcAcAcAdBdBdBdBdBdBdBdBdBdAdAdBdBdAdAdAdAdAeBeBeBeBeBeBdBdBdBdBdBdBdBdBdBdBdBdBdBdBeBeB,x,cAcAcAcAcAcAcAcAcAcAcAeBeBeBeBeB,cBcBcBcBeBeBdBdBdBdBdBeBdBeBeBeBeBcBcBcBcBcCcCcCcCcAcAcAcAcAcAbBbBbBbBbBeBeBeBeBeBeBeBeBeBeBeBeBeBeBeBcBcBcBcBcCcCcCcCcCcCcAcAcAcAcAaBaBaBaBaBaBaBaBaBaBaBaBaBaBaBaBdBdBdBdBdBdBeBeBeBeBeBeBdBdB,x,x,cBdBdBdBeBeBeBeBeBeBeBeBeBdB,x,cBcBcBcBcBcBeBeBeBeBeBeBeBeBeBeBeBdBdBdBdBdBdBdBdBdBdB,cAcAcAcAcAcAcAcAcAcAcAcAcAcAcAcAcAcAcAcAcAcAcAeBeBeBeBeBeBeB,bBbBbBcCcCcCcCdBeBeBeBeBeBeBeBeBeBeBeBeB,dAdAdAdAcBdBcBcBdBcCcCcCcCcCeBdBeBeBeBdBcAcAcAcAcAcAcAcAcAcAcAcCcCcCcC,cBcBcBcBcBdBdBdBdBdBdBdBdBdBdBdBdBdBdBdAdAdAdAcAcAcAcAbBbBbBbBbBbBeBeBeBeBeBeBeBeBdBdBdBdBdAdAdAdAdAdBdBdBdBdBdBeBeBeBeBeBdAdAdAdAdAdAdBdBdB
D18,devprop,F02,famous,C,11,2229,FALSE,s008,x,x,cBcBcBcBcBcBcBcBcBdBdBdBdBeBeBeBeBeBeBeBeBeBdBdBdBdBdBdBdBdBdBdAdAdAdAdAdAeBeBeBeBeBeBeBeBeBeBeBeBeBeBeBeBdBdBdBdBdAdAdAdAdAdAdAeBeBeBeBeBeBeBcA,cBcBcBcBcAcAcAcAcAcAdBdBdBdBdBdBeBeBeBeBdBdBdBdBdBdBdBdBdBdBdBdBdBdBdBdBdBdBdBdBdAdAdAeBeBeBeBeBeBeBeBeBeBcAcAcAcAdBdBdBdBdBdBdBdBdBdAdAdBdBdAdAdAdAdAeBeBeBeBeBeBdBdBdBdBdBdBdBdBdBdBdBdBdBdBeBeB,x,cAcAcAcAcAcAcAcAcAcAcAeBeBeBeBeB,cBcBcBcBeBeBdBdBdBdBdBeBdBeBeBeBeBcBcBcBcBcCcCcCcCcAcAcAcAcAcAbBbBbBbBbBeBeBeBeBeBeBeBeBeBeBeBeBeBeBeBcBcBcBcBcCcCcCcCcCcCcAcAcAcAcAaBaBaBaBaBaBaBaBaBaBaBaBaBaBaBaBdBdBdBdBdBdBeBeBeBeBeBeBdBdB,dBdBdBdBdBdBdBdBdBdBcAcAcAcAcAcCcCcCcCcCcCcCdBdBdBdBdBdBeBeBeBeBeBcAcAcAcBcBcAcAcAcAcAcAcAcAcBcBcBcBcBcBcBcBcB,x,cBdBdBdBeBeBeBeBeBeBeBeBeBdB,x,cBcBcBcBcBcBeBeBeBeBeBeBeBeBeBeBeBdBdBdBdBdBdBdBdBdBdB,cAcAcAcAcAcAcAcAcAcAcAcAcAcAcAcAcAcAcAcAcAcAcAeBeBeBeBeBeBeB,bBbBbBcCcCcCcCdBeBeBeBeBeBeBeBeBeBeBeBeB,dAdAdAdAcBdBcBcBdBcCcCcCcCcCeBdBeBeBeBdBcAcAcAcAcAcAcAcAcAcAcAcCcCcCcC,cBcBcBcBcBdBdBdBdBdBdBdBdBdBdBdBdBdBdBdAdAdAdAcAcAcAcAbBbBbBbBbBbBeBeBeBeBeBeBeBeBdBdBdBdBdAdAdAdAdAdBdBdBdBdBdBeBeBeBeBeBdAdAdAdAdAdAdBdBdB
D90,devprop,F02,famous,C,45,822,TRUE,s009,cBdBdBdBeBeBeBeBeBeBeBeBeBdB,x,cBcBcBcBcBcBcBcBcBdBdBdBdBeBeBeBeBeBeBeBeBeBdBdBdBdBdBdBdBdBdBdAdAdAdAdAdAeBeBeBeBeBeBeBeBeBeBeBeBeBeBeBeBdBdBdBdBdAdAdAdAdAdAdAeBeBeBeBeBeBeBcA,cBcBcBcBcAcAcAcAcAcAdBdBdBdBdBdBeBeBeBeBdBdBdBdBdBdBdBdBdBdBdBdBdBdBdBdBdBdBdBdBdAdAdAeBeBeBeBeBeBeBeBeBeBcAcAcAcAdBdBdBdBdBdBdBdBdBdAdAdBdBdAdAdAdAdAeBeBeBeBeBeBdBdBdBdBdBdBdBdBdBdBdBdBdBdBeBeB,x,cAcAcAcAcAcAcAcAcAcAcAeBeBeBeBeB,cBcBcBcBeBeBdBdBdBdBdBeBdBeBeBeBeBcBcBcBcBcCcCcCcCcAcAcAcAcAcAbBbBbBbBbBeBeBeBeBeBeBeBeBeBeBeBeBeBeBeBcBcBcBcBcCcCcCcCcCcCcAcAcAcAcAaBaBaBaBaBaBaBaBaBaBaBaBaBaBaBaBdBdBdBdBdBdBeBeBeBeBeBeBdBdB,dBdBdBdBdBdBdBdBdBdBcAcAcAcAcAcCcCcCcCcCcCcCdBdBdBdBdBdBeBeBeBeBeBcAcAcAcBcBcAcAcAcAcAcAcAcAcBcBcBcBcBcBcBcBcB,x,x,x,cBcBcBcBcBcBeBeBeBeBeBeBeBeBeBeBeBdBdBdBdBdBdBdBdBdBdB,cAcAcAcAcAcAcAcAcAcAcAcAcAcAcAcAcAcAcAcAcAcAcAeBeBeBeBeBeBeB,bBbBbBcCcCcCcCdBeBeBeBeBeBeBeBeBeBeBeBeB,dAdAdAdAcBdBcBcBdBcCcCcCcCcCeBdBeBeBeBdBcAcAcAcAcAcAcAcAcAcAcAcCcCcCcC,cBcBcBcBcBdBdBdBdBdBdBdBdBdBdBdBdBdBdBdAdAdAdAcAcAcAcAbBbBbBbBbBbBeBeBeBeBeBeBeBeBdBdBdBdBdAdAdAdAdAdBdBdBdBdBdBeBeBeBeBeBdAdAdAdAdAdAdBdBdB
D91,devprop,F02,famous,C,123,1752,FALSE,s010,x,x,cBcBcBcBcBcBcBcBcBdBdBdBdBeBeBeBeBeBeBeBeBeBdBdBdBdBdBdBdBdBdBdAdAdAdAdAdAeBeBeBeBeBeBeBeBeBeBeBeBeBeBeBeBdBdBdBdBdAdAdAdAdAdAdAeBeBeBeBeBeBeBcA,cBcBcBcBcAcAcAcAcAcAdBdBdBdBdBdBeBeBeBeBdBdBdBdBdBdBdBdBdBdBdBdBdBdBdBdBdBdBdBdBdAdAdAeBeBeBeBeBeBeBeBeBeBcAcAcAcAdBdBdBdBdBdBdBdBdBdAdAdBdBdAdAdAdAdAeBeBeBeBeBeBdBdBdBdBdBdBdBdBdBdBdBdBdBdBeBeB,x,cAcAcAcAcAcAcAcAcAcAcAeBeBeBeBeB,cBcBcBcBeBeBdBdBdBdBdBeBdBeBeBeBeBcBcBcBcBcCcCcCcCcAcAcAcAcAcAbBbBbBbBbBeBeBeBeBeBeBeBeBeBeBeBeBeBeBeBcBcBcBcBcCcCcCcCcCcCcAcAcAcAcAaBaBaBaBaBaBaBaBaBaBaBaBaBaBaBaBdBdBdBdBdBdBeBeBeBeBeBeBdBdB,dBdBdBdBdBdBdBdBdBdBcAcAcAcAcAcCcCcCcCcCcCcCdBdBdBdBdBdBeBeBeBeBeBcAcAcAcBcBcAcAcAcAcAcAcAcAcBcBcBcBcBcBcBcBcB,x,cBdBdBdBeBeBeBeBeBeBeBeBeBdB,x,cBcBcBcBcBcBeBeBeBeBeBeBeBeBeBeBeBdBdBdBdBdBdBdBdBdBdB,cAcAcAcAcAcAcAcAcAcAcAcAcAcAcAcAcAcAcAcAcAcAcAeBeBeBeBeBeBeB,bBbBbBcCcCcCcCdBeBeBeBeBeBeBeBeBeBeBeBeB,dAdAdAdAcBdBcBcBdBcCcCcCcCcCeBdBeBeBeBdBcAcAcAcAcAcAcAcAcAcAcAcCcCcCcC,cBcBcBcBcBdBdBdBdBdBdBdBdBdBdBdBdBdBdBdAdAdAdAcAcAcAcAbBbBbBbBbBbBeBeBeBeBeBeBeBeBdBdBdBdBdAdAdAdAdAdBdBdBdBdBdBeBeBeBeBeBdAdAdAdAdAdAdBdBdB
D92,devprop,F02,famous,C,28,1530,TRUE,s011,cBcBcBcBcBcBeBeBeBeBeBeBeBeBeBeBeBdBdBdBdBdBdBdBdBdBdB,x,cBcBcBcBcBcBcBcBcBdBdBdBdBeBeBeBeBeBeBeBeBeBdBdBdBdBdBdBdBdBdBdAdAdAdAdAdAeBeBeBeBeBeBeBeBeBeBeBeBeBeBeBeBdBdBdBdBdAdAdAdAdAdAdAeBeBeBeBeBeBeBcA,cBcBcBcBcAcAcAcAcAcAdBdBdBdBdBdBeBeBeBeBdBdBdBdBdBdBdBdBdBdBdBdBdBdBdBdBdBdBdBdBdAdAdAeBeBeBeBeBeBeBeBeBeBcAcAcAcAdBdBdBdBdBdBdBdBdBdAdAdBdBdAdAdAdAdAeBeBeBeBeBeBdBdBdBdBdBdBdBdBdBdBdBdBdBdBeBeB,x,cAcAcAcAcAcAcAcAcAcAcAeBeBeBeBeB,cBcBcBcBeBeBdBdBdBdBdBeBdBeBeBeBeBcBcBcBcBcCcCcCcCcAcAcAcAcAcAbBbBbBbBbBeBeBeBeBeBeBeBeBeBeBeBeBeBeBeBcBcBcBcBcCcCcCcCcCcCcAcAcAcAcAaBaBaBaBaBaBaBaBaBaBaBaBaBaBaBaBdBdBdBdBdBdBeBeBeBeBeBeBdBdB,dBdBdBdBdBdBdBdBdBdBcAcAcAcAcAcCcCcCcCcCcCcCdBdBdBdBdBdBeBeBeBeBeBcAcAcAcBcBcAcAcAcAcAcAcAcAcBcBcBcBcBcBcBcBcB,x,cBdBdBdBeBeBeBeBeBeBeBeBeBdB,x,x,cAcAcAcAcAcAcAcAcAcAcAcAcAcAcAcAcAcAcAcAcAcAcAeBeBeBeBeBeBeB,bBbBbBcCcCcCcCdBeBeBeBeBeBeBeBeBeBeBeBeB,dAdAdAdAcBdBcBcBdBcCcCcCcCcCeBdBeBeBeBdBcAcAcAcAcAcAcAcAcAcAcAcCcCcCcC,cBcBcBcBcBdBdBdBdBdBdBdBdBdBdBdBdBdBdBdAdAdAdAcAcAcAcAbBbBbBbBbBbBeBeBeBeBeBeBeBeBdBdBdBdBdAdAdAdAdAdBdBdBdBdBdBeBeBeBeBeBdAdAdAdAdAdAdBdBdB
D93,devprop,F02,famous,C,24,1691,TRUE,s012,cAcAcAcAcAcAcAcAcAcAcAcAcAcAcAcAcAcAcAcAcAcAcAeBeBeBeBeBeBeB,x,cBcBcBcBcBcBcBcBcBdBdBdBdBeBeBeBeBeBeBeBeBeBdBdBdBdBdBdBdBdBdBdAdAdAdAdAdAeBeBeBeBeBeBeBeBeBeBeBeBeBeBeBeBdBdBdBdBdAdAdAdAdAdAdAeBeBeBeBeBeBeBcA,cBcBcBcBcAcAcAcAcAcAdBdBdBdBdBdBeBeBeBeBdBdBdBdBdBdBdBdBdBdBdBdBdBdBdBdBdBdBdBdBdAdAdAeBeBeBeBeBeBeBeBeBeBcAcAcAcAdBdBdBdBdBdBdBdBdBdAdAdBdBdAdAdAdAdAeBeBeBeBeBeBdBdBdBdBdBdBdBdBdBdBdBdBdBdBeBeB,x,cAcAcAcAcAcAcAcAcAcAcAeBeBeBeBeB,cBcBcBcBeBeBdBdBdBdBdBeBdBeBeBeBeBcBcBcBcBcCcCcCcCcAcAcAcAcAcAbBbBbBbBbBeBeBeBeBeBeBeBeBeBeBeBeBeBeBeBcBcBcBcBcCcCcCcCcCcCcAcAcAcAcAaBaBaBaBaBaBaBaBaBaBaBaBaBaBaBaBdBdBdBdBdBdBeBeBeBeBeBeBdBdB,dBdBdBdBdBdBdBdBdBdBcAcAcAcAcAcCcCcCcCcCcCcCdBdBdBdBdBdBeBeBeBeBeBcAcAcAcBcBcAcAcAcAcAcAcAcAcBcBcBcBcBcBcBcBcB,x,cBdBdBdBeBeBeBeBeBeBeBeBeBdB,x,cBcBcBcBcBcBeBeBeBeBeBeBeBeBeBeBeBdBdBdBdBdBdBdBdBdBdB,x,bBbBbBcCcCcCcCdBeBeBeBeBeBeBeBeBeBeBeBeB,dAdAdAdAcBdBcBcBdBcCcCcCcCcCeBdBeBeBeBdBcAcAcAcAcAcAcAcAcAcAcAcCcCcCcC,cBcBcBcBcBdBdBdBdBdBdBdBdBdBdBdBdBdBdBdAdAdAdAcAcAcAcAbBbBbBbBbBbBeBeBeBeBeBeBeBeBdBdBdBdBdAdAdAdAdAdBdBdBdBdBdBeBeBeBeBeBdAdAdAdAdAdAdBdBdB
D94,devprop,F02,famous,C,139,1052,TRUE,s013,bBbBbBcCcCcCcCdBeBeBeBeBeBeBeBeBeBeBeBeB,x,cBcBcBcBcBcBcBcBcBdBdBdBdBeBeBeBeBeBeBeBeBeBdBdBdBdBdBdBdBdBdBdAdAdAdAdAdAeBeBeBeBeBeBeBeBeBeBeBeBeBeBeBeBdBdBdBdBdAdAdAdAdAdAdAeBeBeBeBeBeBeBcA,cBcBcBcBcAcAcAcAcAcAdBdBdBdBdBdBeBeBeBeBdBdBdBdBdBdBdBdBdBdBdBdBdBdBdBdBdBdBdBdBdAdAdAeBeBeBeBeBeBeBeBeBeBcAcAcAcAdBdBdBdBdBdBdBdBdBdAdAdBdBdAdAdAdAdAeBeBeBeBeBeBdBdBdBdBdBdBdBdBdBdBdBdBdBdBeBeB,x,cAcAcAcAcAcAcAcAcAcAcAeBeBeBeBeB,cBcBcBcBeBeBdBdBdBdBdBeBdBeBeBeBeBcBcBcBcBcCcCcCcCcAcAcAcAcAcAbBbBbBbBbBeBeBeBeBeBeBeBeBeBeBeBeBeBeBeBcBcBcBcBcCcCcCcCcCcCcAcAcAcAcAaBaBaBaBaBaBaBaBaBaBaBaBaBaBaBaBdBdBdBdBdBdBeBeBeBeBeBeBdBdB,dBdBdBdBdBdBdBdBdBdBcAcAcAcAcAcCcCcCcCcCcCcCdBdBdBdBdBdBeBeBeBeBeBcAcAcAcBcBcAcAcAcAcAcAcAcAcBcBcBcBcBcBcBcBcB,x,cBdBdBdBeBeBeBeBeBeBeBeBeBdB,x,cBcBcBcBcBcBeBeBeBeBeBeBeBeBeBeBeBdBdBdBdBdBdBdBdBdBdB,cAcAcAcAcAcAcAcAcAcAcAcAcAcAcAcAcAcAcAcAcAcAcAeBeBeBeBeBeBeB,x,dAdAdAdAcBdBcBcBdBcCcCcCcCcCeBdBeBeBeBdBcAcAcAcAcAcAcAcAcAcAcAcCcCcCcC,cBcBcBcBcBdBdBdBdBdBdBdBdBdBdBdBdBdBdBdAdAdAdAcAcAcAcAbBbBbBbBbBbBeBeBeBeBeBeBeBeBdBdBdBdBdAdAdAdAdAdBdBdBdBdBdBeBeBeBeBeBdAdAdAdAdAdAdBdBdB
D95,devprop,F02,famous,C,130,1703,TRUE,s014,dAdAdAdAcBdBcBcBdBcCcCcCcCcCeBdBeBeBeBdBcAcAcAcAcAcAcAcAcAcAcAcCcCcCcC,x,cBcBcBcBcBcBcBcBcBdBdBdBdBeBeBeBeBeBeBeBeBeBdBdBdBdBdBdBdBdBdBdAdAdAdAdAdAeBeBeBeBeBeBeBeBeBeBeBeBeBeBeBeBdBdBdBdBdAdAdAdAdAdAdAeBeBeBeBeBeBeBcA,cBcBcBcBcAcAcAcAcAcAdBdBdBdBdBdBeBeBeBeBdBdBdBdBdBdBdBdBdBdBdBdBdBdBdBdBdBdBdBdBdAdAdAeBeBeBeBeBeBeBeBeBeBcAcAcAcAdBdBdBdBdBdBdBdBdBdAdAdBdBdAdAdAdAdAeBeBeBeBeBeBdBdBdBdBdBdBdBdBdBdBdBdBdBdBeBeB,x,cAcAcAcAcAcAcAcAcAcAcAeBeBeBeBeB,cBcBcBcBeBeBdBdBdBdBdBeBdBeBeBeBeBcBcBcBcBcCcCcCcCcAcAcAcAcAcAbBbBbBbBbBeBeBeBeBeBeBeBeBeBeBeBeBeBeBeBcBcBcBcBcCcCcCcCcCcCcAcAcAcAcAaBaBaBaBaBaBaBaBaBaBaBaBaBaBaBaBdBdBdBdBdBdBeBeBeBeBeBeBdBdB,dBdBdBdBdBdBdBdBdBdBcAcAcAcAcAcCcCcCcCcCcCcCdBdBdBdBdBdBeBeBeBeBeBcAcAcAcBcBcAcAcAcAcAcAcAcAcBcBcBcBcBcBcBcBcB,x,cBdBdBdBeBeBeBeBeBeBeBeBeBdB,x,cBcBcBcBcBcBeBeBeBeBeBeBeBeBeBeBeBdBdBdBdBdBdBdBdBdBdB,cAcAcAcAcAcAcAcAcAcAcAcAcAcAcAcAcAcAcAcAcAcAcAeBeBeBeBeBeBeB,bBbBbBcCcCcCcCdBeBeBeBeBeBeBeBeBeBeBeBeB,x,cBcBcBcBcBdBdBdBdBdBdBdBdBdBdBdBdBdBdBdAdAdAdAcAcAcAcAbBbBbBbBbBbBeBeBeBeBeBeBeBeBdBdBdBdBdAdAdAdAdAdBdBdBdBdBdBeBeBeBeBeBdAdAdAdAdAdAdBdBdB
D96,devprop,F02,famous,C,74,3707,TRUE,s015,cBcBcBcBcBdBdBdBdBdBdBdBdBdBdBdBdBdBdBdAdAdAdAcAcAcAcAbBbBbBbBbBbBeBeBeBeBeBeBeBeBdBdBdBdBdAdAdAdAdAdBdBdBdBdBdBeBeBeBeBeBdAdAdAdAdAdAdBdBdB,x,cBcBcBcBcBcBcBcBcBdBdBdBdBeBeBeBeBeBeBeBeBeBdBdBdBdBdBdBdBdBdBdAdAdAdAdAdAeBeBeBeBeBeBeBeBeBeBeBeBeBeBeBeBdBdBdBdBdAdAdAdAdAdAdAeBeBeBeBeBeBeBcA,cBcBcBcBcAcAcAcAcAcAdBdBdBdBdBdBeBeBeBeBdBdBdBdBdBdBdBdBdBdBdBdBdBdBdBdBdBdBdBdBdAdAdAeBeBeBeBeBeBeBeBeBeBcAcAcAcAdBdBdBdBdBdBdBdBdBdAdAdBdBdAdAdAdAdAeBeBeBeBeBeBdBdBdBdBdBdBdBdBdBdBdBdBdBdBeBeB,x,cAcAcAcAcAcAcAcAcAcAcAeBeBeBeBeB,cBcBcBcBeBeBdBdBdBdBdBeBdBeBeBeBeBcBcBcBcBcCcCcCcCcAcAcAcAcAcAbBbBbBbBbBeBeBeBeBeBeBeBeBeBeBeBeBeBeBeBcBcBcBcBcCcCcCcCcCcCcAcAcAcAcAaBaBaBaBaBaBaBaBaBaBaBaBaBaBaBaBdBdBdBdBdBdBeBeBeBeBeBeBdBdB,dBdBdBdBdBdBdBdBdBdBcAcAcAcAcAcCcCcCcCcCcCcCdBdBdBdBdBdBeBeBeBeBeBcAcAcAcBcBcAcAcAcAcAcAcAcAcBcBcBcBcBcBcBcBcB,x,cBdBdBdBeBeBeBeBeBeBeBeBeBdB,x,cBcBcBcBcBcBeBeBeBeBeBeBeBeBeBeBeBdBdBdBdBdBdBdBdBdBdB,cAcAcAcAcAcAcAcAcAcAcAcAcAcAcAcAcAcAcAcAcAcAcAeBeBeBeBeBeBeB,bBbBbBcCcCcCcCdBeBeBeBeBeBeBeBeBeBeBeBeB,dAdAdAdAcBdBcBcBdBcCcCcCcCcCeBdBeBeBeBdBcAcAcAcAcAcAcAcAcAcAcAcCcCcCcC,x
D06,devprop,F02,famous,D,105,3955,FALSE,s001,x,x,dCdCdCdCdCcAcAcAcAcAcAcAcAcAcAcAcAdCdCdCdCdCdCdCdCdCdCdCdCdCdCdCdBdBdBdBdBdBeBeBeBeBeBfBfBfBfBfBfBeBeBeBeBeBeBeBeBeBeBeBdBdBdBdBdBcAdBcAcAcAcAcAcAcAcAcAcAcAbBbBbBbBbBbBbBcCcCcCcCdB,dCdCdCdCdCcBcBcBcBcBcBcBcBcCcCcCcCcCdCdCdCdCdBdBdBdBeBeBeBeBeBcBcBcBcBcBcCcCcCcCcCcCcBcBcBcBcBcBcCcCcCcCcCcCcCcCcCcCeBeBeBeBeBcBcBcBcBcCcCcCcCcCcCcCcBcB,x,dCdCdCdCdCcAcAcAcAcAcAeBeBeBeBeBeBeBeBeBcAcAcAcAcAcAcCcCcCcCcCcCcC,dCdCdCdBdBdBdBdBdBdBdBdBdBdBcBcBcBcBcCcCcCcCcCcCcCcCdBdBdBdBdBdBdBeBeBdBdBdBdBcBcBcBcBcBcAcAcAcAcAcAcAcAcAcAcCcCcCcCbBbBbBbBbBbBbBbBbBbBbBbBbBbBbBbBbBbBbBbBbBeBeBeBdBdBdBdBdBdBdBdCdCdC,dCdCdCdCdBcBcBcBcAcAcAcAcAcCcCcCcCcCcCcCcCcCcBcBcBcBcBdBdBdBdBdBdBdBcBcBcBcBcBcBcCcCcCcCcCcCcAcAcAcAcAcBcBcBcCcCcCdBdBdBdBdBdBdBcBcBcBcBcBcBcBcBcB,cCcCcCdCcCcCcCcCcCdBdBdBdBdBcCdBcCcCdBdBdBdBdBdBdBdBdB,eBeBeBeBeBeBeBeBeBeBeBeBdBdBdBdBdBcCcCcCdBeBeBeBeBeBeBeBeBeBeBeBeBeBeBeB,x,eBeBeBeBdBdBdBdBdBdBcAcAcAcAdB,cAcAcAcAcAcAcAcAcAcAcBcBcBcBcBeBeBeBeBeBeBeB,dBeBeBeBdBcCcCcCcCcCcCcCcCcCcCeBeBeB,dBdBdBdBcBcBcBcBcCcCcCdBcAdBdBdBdBdBdBdBdBeBeBeBeBeBeBdBdBdBcCdBdBdBdBdBdAdAdA,x
