subj,ability,face,fame,angle,trial,rt,acc,sq,s001,s002,s003,s004,s005,s006,s007,s008,s009,s010,s011,s012,s013,s014,s015
D06,devprop,F01,famous,A,50,2352,FALSE,s001,<undefined>,<undefined>,<undefined>,<undefined>,<undefined>,<undefined>,<undefined>,<undefined>,<undefined>,<undefined>,<undefined>,<undefined>,<undefined>,<undefined>,<undefined>
D08,devprop,F01,famous,A,139,3936,FALSE,s002,<undefined>,<undefined>,<undefined>,<undefined>,<undefined>,<undefined>,<undefined>,<undefined>,<undefined>,<undefined>,<undefined>,<undefined>,<undefined>,<undefined>,<undefined>
D13,devprop,F01,famous,A,118,2643,FALSE,s003,<undefined>,<undefined>,<undefined>,<undefined>,<undefined>,<undefined>,<undefined>,<undefined>,<undefined>,<undefined>,<undefined>,<undefined>,<undefined>,<undefined>,<undefined>
D14,devprop,F01,famous,A,10,2766,FALSE,s004,<undefined>,<undefined>,<undefined>,<undefined>,<undefined>,<undefined>,<undefined>,<undefined>,<undefined>,<undefined>,<undefined>,<undefined>,<undefined>,<undefined>,<undefined>
D15,devprop,F01,famous,A,152,1335,TRUE,s005,<undefined>,<undefined>,<undefined>,<undefined>,<undefined>,-0.14809,-0.21514,<undefined>,0.14908,-0.28125,0.0074597,0.094416,0.0085786,-0.028571,-0.030213
D16,devprop,F01,famous,A,25,4633,TRUE,s006,<undefined>,<undefined>,<undefined>,<undefined>,-0.14809,<undefined>,0.078731,<undefined>,-0.23333,-0.11571,-0.23238,-0.21667,-0.10079,-0.10174,0.030637
D17,devprop,F01,famous,A,111,3608,TRUE,s007,<undefined>,<undefined>,<undefined>,<undefined>,-0.21514,0.078731,<undefined>,<undefined>,-0.29104,-0.23134,-0.089552,-0.14051,-0.18145,-0.060762,-0.12643
D18,devprop,F01,famous,A,42,2055,FALSE,s008,<undefined>,<undefined>,<undefined>,<undefined>,<undefined>,<undefined>,<undefined>,<undefined>,<undefined>,<undefined>,<undefined>,<undefined>,<undefined>,<undefined>,<undefined>
D90,devprop,F01,famous,A,100,909,TRUE,s009,<undefined>,<undefined>,<undefined>,<undefined>,0.14908,-0.23333,-0.29104,<undefined>,<undefined>,-0.33839,0.16667,-0.26471,-0.16667,-0.24286,-0.15385
D91,devprop,F01,famous,A,140,2494,TRUE,s010,<undefined>,<undefined>,<undefined>,<undefined>,-0.28125,-0.11571,-0.23134,<undefined>,-0.33839,<undefined>,-0.17708,-0.42142,-0.33124,-0.29136,-0.027196
D92,devprop,F01,famous,A,148,1221,TRUE,s011,<undefined>,<undefined>,<undefined>,<undefined>,0.0074597,-0.23238,-0.089552,<undefined>,0.16667,-0.17708,<undefined>,0.012956,-0.091421,0.2049,-0.18269
D93,devprop,F01,famous,A,81,1038,TRUE,s012,<undefined>,<undefined>,<undefined>,<undefined>,0.094416,-0.21667,-0.14051,<undefined>,-0.26471,-0.42142,0.012956,<undefined>,-0.058088,0.057143,-0.31731
D94,devprop,F01,famous,A,106,1602,TRUE,s013,<undefined>,<undefined>,<undefined>,<undefined>,0.0085786,-0.10079,-0.18145,<undefined>,-0.16667,-0.33124,-0.091421,-0.058088,<undefined>,0.15714,-0.18708
D95,devprop,F01,famous,A,138,1732,TRUE,s014,<undefined>,<undefined>,<undefined>,<undefined>,-0.028571,-0.10174,-0.060762,<undefined>,-0.24286,-0.29136,0.2049,0.057143,0.15714,<undefined>,-0.1423
D96,devprop,F01,famous,A,42,2774,TRUE,s015,<undefined>,<undefined>,<undefined>,<undefined>,-0.030213,0.030637,-0.12643,<undefined>,-0.15385,-0.027196,-0.18269,-0.31731,-0.18708,-0.1423,<undefined>
D06,devprop,F01,famous,B,23,5236,TRUE,s001,<undefined>,-0.0092731,<undefined>,<undefined>,-0.2043,0.20312,0.24194,<undefined>,-0.39247,-0.198,<undefined>,-0.13441,0.042247,0.14163,0.15146
D08,devprop,F01,famous,B,10,5390,TRUE,s002,-0.0092731,<undefined>,<undefined>,<undefined>,-0.29543,0.069083,-0.037548,<undefined>,-0.37629,-0.14433,<undefined>,-0.30839,-0.12371,-0.16611,0.06835
D13,devprop,F01,famous,B,24,2546,FALSE,s003,<undefined>,<undefined>,<undefined>,<undefined>,<undefined>,<undefined>,<undefined>,<undefined>,<undefined>,<undefined>,<undefined>,<undefined>,<undefined>,<undefined>,<undefined>
D14,devprop,F01,famous,B,140,1047,FALSE,s004,<undefined>,<undefined>,<undefined>,<undefined>,<undefined>,<undefined>,<undefined>,<undefined>,<undefined>,<undefined>,<undefined>,<undefined>,<undefined>,<undefined>,<undefined>
D15,devprop,F01,famous,B,105,1564,TRUE,s005,-0.2043,-0.29543,<undefined>,<undefined>,<undefined>,-0.18913,-0.11047,<undefined>,-0.10793,0.23134,<undefined>,-0.39152,-0.21428,-0.20351,-0.14937
D16,devprop,F01,famous,B,152,9218,TRUE,s006,0.20312,0.069083,<undefined>,<undefined>,-0.18913,<undefined>,0.12635,<undefined>,-0.29167,-0.16146,<undefined>,-0.28199,0.076644,-0.047309,0.13215
D17,devprop,F01,famous,B,29,4577,TRUE,s007,0.24194,-0.037548,<undefined>,<undefined>,-0.11047,0.12635,<undefined>,<undefined>,-0.36047,-0.16461,<undefined>,-0.15116,0.31612,0.29486,0.018439
D18,devprop,F01,famous,B,87,2735,FALSE,s008,<undefined>,<undefined>,<undefined>,<undefined>,<undefined>,<undefined>,<undefined>,<undefined>,<undefined>,<undefined>,<undefined>,<undefined>,<undefined>,<undefined>,<undefined>
D90,devprop,F01,famous,B,25,933,TRUE,s009,-0.39247,-0.37629,<undefined>,<undefined>,-0.10793,-0.29167,-0.36047,<undefined>,<undefined>,-0.048387,<undefined>,-0.58629,-0.36667,-0.35246,-0.23529
D91,devprop,F01,famous,B,142,1597,TRUE,s010,-0.198,-0.14433,<undefined>,<undefined>,0.23134,-0.16146,-0.16461,<undefined>,-0.048387,<undefined>,<undefined>,-0.62026,-0.073137,-0.13115,-0.040333
D92,devprop,F01,famous,B,30,6089,FALSE,s011,<undefined>,<undefined>,<undefined>,<undefined>,<undefined>,<undefined>,<undefined>,<undefined>,<undefined>,<undefined>,<undefined>,<undefined>,<undefined>,<undefined>,<undefined>
D93,devprop,F01,famous,B,20,1413,TRUE,s012,-0.13441,-0.30839,<undefined>,<undefined>,-0.39152,-0.28199,-0.15116,<undefined>,-0.58629,-0.62026,<undefined>,<undefined>,-0.19199,-0.10772,-0.014706
D94,devprop,F01,famous,B,58,3715,TRUE,s013,0.042247,-0.12371,<undefined>,<undefined>,-0.21428,0.076644,0.31612,<undefined>,-0.36667,-0.073137,<undefined>,-0.19199,<undefined>,0.30343,0.049347
D95,devprop,F01,famous,B,73,3004,TRUE,s014,0.14163,-0.16611,<undefined>,<undefined>,-0.20351,-0.047309,0.29486,<undefined>,-0.35246,-0.13115,<undefined>,-0.10772,0.30343,<undefined>,0.029628
D96,devprop,F01,famous,B,85,3607,TRUE,s015,0.15146,0.06835,<undefined>,<undefined>,-0.14937,0.13215,0.018439,<undefined>,-0.23529,-0.040333,<undefined>,-0.014706,0.049347,0.029628,<undefined>
D06,devprop,F01,famous,C,1,2603,FALSE,s001,<undefined>,<undefined>,<undefined>,<undefined>,<undefined>,<undefined>,<undefined>,<undefined>,<undefined>,<undefined>,<undefined>,<undefined>,<undefined>,<undefined>,<undefined>
D08,devprop,F01,famous,C,109,1835,FALSE,s002,<undefined>,<undefined>,<undefined>,<undefined>,<undefined>,<undefined>,<undefined>,<undefined>,<undefined>,<undefined>,<undefined>,<undefined>,<undefined>,<undefined>,<undefined>
D13,devprop,F01,famous,C,23,3463,FALSE,s003,<undefined>,<undefined>,<undefined>,<undefined>,<undefined>,<undefined>,<undefined>,<undefined>,<undefined>,<undefined>,<undefined>,<undefined>,<undefined>,<undefined>,<undefined>
D14,devprop,F01,famous,C,16,3165,FALSE,s004,<undefined>,<undefined>,<undefined>,<undefined>,<undefined>,<undefined>,<undefined>,<undefined>,<undefined>,<undefined>,<undefined>,<undefined>,<undefined>,<undefined>,<undefined>
D15,devprop,F01,famous,C,45,2441,TRUE,s005,<undefined>,<undefined>,<undefined>,<undefined>,<undefined>,<undefined>,0.044643,<undefined>,-0.16667,0.090656,-0.033333,-0.055556,0.090795,<undefined>,-0.055843
D16,devprop,F01,famous,C,53,4745,FALSE,s006,<undefined>,<undefined>,<undefined>,<undefined>,<undefined>,<undefined>,<undefined>,<undefined>,<undefined>,<undefined>,<undefined>,<undefined>,<undefined>,<undefined>,<undefined>
D17,devprop,F01,famous,C,11,3039,TRUE,s007,<undefined>,<undefined>,<undefined>,<undefined>,0.044643,<undefined>,<undefined>,<undefined>,-0.39286,0.027869,0.017857,-0.10714,0.23827,<undefined>,-0.035706
D18,devprop,F01,famous,C,91,2656,FALSE,s008,<undefined>,<undefined>,<undefined>,<undefined>,<undefined>,<undefined>,<undefined>,<undefined>,<undefined>,<undefined>,<undefined>,<undefined>,<undefined>,<undefined>,<undefined>
D90,devprop,F01,famous,C,110,822,TRUE,s009,<undefined>,<undefined>,<undefined>,<undefined>,-0.16667,<undefined>,-0.39286,<undefined>,<undefined>,-0.27778,-0.22071,-0.66667,-0.225,<undefined>,-0.29545
D91,devprop,F01,famous,C,62,4021,TRUE,s010,<undefined>,<undefined>,<undefined>,<undefined>,0.090656,<undefined>,0.027869,<undefined>,-0.27778,<undefined>,-0.2037,-0.29012,-0.0061728,<undefined>,0.14124
D92,devprop,F01,famous,C,153,1173,TRUE,s011,<undefined>,<undefined>,<undefined>,<undefined>,-0.033333,<undefined>,0.017857,<undefined>,-0.22071,-0.2037,<undefined>,-0.10355,0,<undefined>,-0.28409
D93,devprop,F01,famous,C,129,1116,TRUE,s012,<undefined>,<undefined>,<undefined>,<undefined>,-0.055556,<undefined>,-0.10714,<undefined>,-0.66667,-0.29012,-0.10355,<undefined>,-0.066421,<undefined>,-0.29545
D94,devprop,F01,famous,C,111,1981,TRUE,s013,<undefined>,<undefined>,<undefined>,<undefined>,0.090795,<undefined>,0.23827,<undefined>,-0.225,-0.0061728,0,-0.066421,<undefined>,<undefined>,-0.17678
D95,devprop,F01,famous,C,76,1728,FALSE,s014,<undefined>,<undefined>,<undefined>,<undefined>,<undefined>,<undefined>,<undefined>,<undefined>,<undefined>,<undefined>,<undefined>,<undefined>,<undefined>,<undefined>,<undefined>
D96,devprop,F01,famous,C,5,4550,TRUE,s015,<undefined>,<undefined>,<undefined>,<undefined>,-0.055843,<undefined>,-0.035706,<undefined>,-0.29545,0.14124,-0.28409,-0.29545,-0.17678,<undefined>,<undefined>
D06,devprop,F01,famous,D,94,3700,FALSE,s001,<undefined>,<undefined>,<undefined>,<undefined>,<undefined>,<undefined>,<undefined>,<undefined>,<undefined>,<undefined>,<undefined>,<undefined>,<undefined>,<undefined>,<undefined>
D08,devprop,F01,famous,D,144,1689,FALSE,s002,<undefined>,<undefined>,<undefined>,<undefined>,<undefined>,<undefined>,<undefined>,<undefined>,<undefined>,<undefined>,<undefined>,<undefined>,<undefined>,<undefined>,<undefined>
D13,devprop,F01,famous,D,1,1530,FALSE,s003,<undefined>,<undefined>,<undefined>,<undefined>,<undefined>,<undefined>,<undefined>,<undefined>,<undefined>,<undefined>,<undefined>,<undefined>,<undefined>,<undefined>,<undefined>
D14,devprop,F01,famous,D,124,1104,FALSE,s004,<undefined>,<undefined>,<undefined>,<undefined>,<undefined>,<undefined>,<undefined>,<undefined>,<undefined>,<undefined>,<undefined>,<undefined>,<undefined>,<undefined>,<undefined>
D15,devprop,F01,famous,D,98,1487,FALSE,s005,<undefined>,<undefined>,<undefined>,<undefined>,<undefined>,<undefined>,<undefined>,<undefined>,<undefined>,<undefined>,<undefined>,<undefined>,<undefined>,<undefined>,<undefined>
D16,devprop,F01,famous,D,39,4961,FALSE,s006,<undefined>,<undefined>,<undefined>,<undefined>,<undefined>,<undefined>,<undefined>,<undefined>,<undefined>,<undefined>,<undefined>,<undefined>,<undefined>,<undefined>,<undefined>
D17,devprop,F01,famous,D,78,2651,TRUE,s007,<undefined>,<undefined>,<undefined>,<undefined>,<undefined>,<undefined>,<undefined>,<undefined>,-0.030612,<undefined>,-0.16647,-0.18367,<undefined>,<undefined>,0.2449
D18,devprop,F01,famous,D,71,2575,FALSE,s008,<undefined>,<undefined>,<undefined>,<undefined>,<undefined>,<undefined>,<undefined>,<undefined>,<undefined>,<undefined>,<undefined>,<undefined>,<undefined>,<undefined>,<undefined>
D90,devprop,F01,famous,D,23,1213,TRUE,s009,<undefined>,<undefined>,<undefined>,<undefined>,<undefined>,<undefined>,-0.030612,<undefined>,<undefined>,<undefined>,0.27273,-0.4727,<undefined>,<undefined>,0.19062
D91,devprop,F01,famous,D,26,1615,FALSE,s010,<undefined>,<undefined>,<undefined>,<undefined>,<undefined>,<undefined>,<undefined>,<undefined>,<undefined>,<undefined>,<undefined>,<undefined>,<undefined>,<undefined>,<undefined>
D92,devprop,F01,famous,D,127,1059,TRUE,s011,<undefined>,<undefined>,<undefined>,<undefined>,<undefined>,<undefined>,-0.16647,<undefined>,0.27273,<undefined>,<undefined>,-0.46664,<undefined>,<undefined>,-0.042857
D93,devprop,F01,famous,D,143,926,TRUE,s012,<undefined>,<undefined>,<undefined>,<undefined>,<undefined>,<undefined>,-0.18367,<undefined>,-0.4727,<undefined>,-0.46664,<undefined>,<undefined>,<undefined>,-0.35672
D94,devprop,F01,famous,D,134,860,FALSE,s013,<undefined>,<undefined>,<undefined>,<undefined>,<undefined>,<undefined>,<undefined>,<undefined>,<undefined>,<undefined>,<undefined>,<undefined>,<undefined>,<undefined>,<undefined>
D95,devprop,F01,famous,D,48,2133,FALSE,s014,<undefined>,<undefined>,<undefined>,<undefined>,<undefined>,<undefined>,<undefined>,<undefined>,<undefined>,<undefined>,<undefined>,<undefined>,<undefined>,<undefined>,<undefined>
D96,devprop,F01,famous,D,24,1898,TRUE,s015,<undefined>,<undefined>,<undefined>,<undefined>,<undefined>,<undefined>,0.2449,<undefined>,0.19062,<undefined>,-0.042857,-0.35672,<undefined>,<undefined>,<undefined>
D06,devprop,F02,famous,A,14,2132,TRUE,s001,<undefined>,-0.17678,-0.14435,<undefined>,0.14551,-0.21051,<undefined>,-0.1201,-0.078947,<undefined>,-0.050374,-0.17067,-0.025928,0.19098,0.14325
D08,devprop,F02,famous,A,24,5031,TRUE,s002,-0.17678,<undefined>,-0.15446,<undefined>,-0.19271,-0.089282,<undefined>,0.10938,-0.3125,<undefined>,-0.23438,-0.24821,-0.23438,-0.15104,-0.025148
D13,devprop,F02,famous,A,52,1474,TRUE,s003,-0.14435,-0.15446,<undefined>,<undefined>,0.25862,-0.06044,<undefined>,0.032663,-0.071429,<undefined>,0.33929,0.27705,0.16071,0.42297,0.29882
D14,devprop,F02,famous,A,83,1202,FALSE,s004,<undefined>,<undefined>,<undefined>,<undefined>,<undefined>,<undefined>,<undefined>,<undefined>,<undefined>,<undefined>,<undefined>,<undefined>,<undefined>,<undefined>,<undefined>
D15,devprop,F02,famous,A,1,1824,TRUE,s005,0.14551,-0.19271,0.25862,<undefined>,<undefined>,-0.17582,<undefined>,0.121,0.051724,<undefined>,0.14385,-0.32167,0.41379,0.16405,0.20159
D16,devprop,F02,famous,A,73,4744,TRUE,s006,-0.21051,-0.089282,-0.06044,<undefined>,-0.17582,<undefined>,<undefined>,0.13187,-0.36813,<undefined>,-0.20235,-0.26279,-0.21978,-0.10989,-0.054002
D17,devprop,F02,famous,A,70,3607,FALSE,s007,<undefined>,<undefined>,<undefined>,<undefined>,<undefined>,<undefined>,<undefined>,<undefined>,<undefined>,<undefined>,<undefined>,<undefined>,<undefined>,<undefined>,<undefined>
D18,devprop,F02,famous,A,5,2685,TRUE,s008,-0.1201,0.10938,0.032663,<undefined>,0.121,0.13187,<undefined>,<undefined>,-0.13265,<undefined>,-0.037315,-0.27491,0.14286,-0.014856,0.28601
D90,devprop,F02,famous,A,106,716,TRUE,s009,-0.078947,-0.3125,-0.071429,<undefined>,0.051724,-0.36813,<undefined>,-0.13265,<undefined>,<undefined>,0.13158,-0.23162,0.35714,0.055556,-0.083333
D91,devprop,F02,famous,A,78,3942,FALSE,s010,<undefined>,<undefined>,<undefined>,<undefined>,<undefined>,<undefined>,<undefined>,<undefined>,<undefined>,<undefined>,<undefined>,<undefined>,<undefined>,<undefined>,<undefined>
D92,devprop,F02,famous,A,69,1106,TRUE,s011,-0.050374,-0.23438,0.33929,<undefined>,0.14385,-0.20235,<undefined>,-0.037315,0.13158,<undefined>,<undefined>,-0.026523,0.47619,0.18519,0.25238
D93,devprop,F02,famous,A,7,1514,TRUE,s012,-0.17067,-0.24821,0.27705,<undefined>,-0.32167,-0.26279,<undefined>,-0.27491,-0.23162,<undefined>,-0.026523,<undefined>,-0.21989,0.017857,0.097631
D94,devprop,F02,famous,A,16,1018,TRUE,s013,-0.025928,-0.23438,0.16071,<undefined>,0.41379,-0.21978,<undefined>,0.14286,0.35714,<undefined>,0.47619,-0.21989,<undefined>,0.30265,0.18056
D95,devprop,F02,famous,A,103,1311,TRUE,s014,0.19098,-0.15104,0.42297,<undefined>,0.16405,-0.10989,<undefined>,-0.014856,0.055556,<undefined>,0.18519,0.017857,0.30265,<undefined>,0.21787
D96,devprop,F02,famous,A,116,1915,TRUE,s015,0.14325,-0.025148,0.29882,<undefined>,0.20159,-0.054002,<undefined>,0.28601,-0.083333,<undefined>,0.25238,0.097631,0.18056,0.21787,<undefined>
D06,devprop,F02,famous,B,133,4154,FALSE,s001,<undefined>,<undefined>,<undefined>,<undefined>,<undefined>,<undefined>,<undefined>,<undefined>,<undefined>,<undefined>,<undefined>,<undefined>,<undefined>,<undefined>,<undefined>
D08,devprop,F02,famous,B,83,3317,TRUE,s002,<undefined>,<undefined>,-0.21642,<undefined>,-0.11812,-0.079309,0.14151,-0.17504,-0.18657,<undefined>,-0.2211,-0.26119,-0.22388,-0.14179,0.25373
D13,devprop,F02,famous,B,5,1363,TRUE,s003,<undefined>,-0.21642,<undefined>,<undefined>,0.10714,0.038462,-0.18421,-0.06476,-0.60714,<undefined>,0.17857,0.020921,0.053571,-0.12447,-0.29054
D14,devprop,F02,famous,B,54,2041,FALSE,s004,<undefined>,<undefined>,<undefined>,<undefined>,<undefined>,<undefined>,<undefined>,<undefined>,<undefined>,<undefined>,<undefined>,<undefined>,<undefined>,<undefined>,<undefined>
D15,devprop,F02,famous,B,61,1467,TRUE,s005,<undefined>,-0.11812,0.10714,<undefined>,<undefined>,0.38682,-0.21579,-0.37364,-0.076923,<undefined>,0.15385,0.006599,0.19561,0,-0.10373
D16,devprop,F02,famous,B,149,2119,TRUE,s006,<undefined>,-0.079309,0.038462,<undefined>,0.38682,<undefined>,-0.063158,-0.30664,0.053482,<undefined>,0.012821,-0.24541,0.03004,-0.14103,-0.062632
D17,devprop,F02,famous,B,75,4797,TRUE,s007,<undefined>,0.14151,-0.18421,<undefined>,-0.21579,-0.063158,<undefined>,-0.11729,-0.33158,<undefined>,-0.14211,-0.27895,-0.24285,-0.24737,0.0758
D18,devprop,F02,famous,B,127,2205,TRUE,s008,<undefined>,-0.17504,-0.06476,<undefined>,-0.37364,-0.30664,-0.11729,<undefined>,-0.49014,<undefined>,-0.48698,-0.56285,-0.10888,-0.27778,-0.32372
D90,devprop,F02,famous,B,70,1143,TRUE,s009,<undefined>,-0.18657,-0.60714,<undefined>,-0.076923,0.053482,-0.33158,-0.49014,<undefined>,<undefined>,-0.41667,-0.75,-0.02381,-0.15,-0.20769
D91,devprop,F02,famous,B,117,2818,FALSE,s010,<undefined>,<undefined>,<undefined>,<undefined>,<undefined>,<undefined>,<undefined>,<undefined>,<undefined>,<undefined>,<undefined>,<undefined>,<undefined>,<undefined>,<undefined>
D92,devprop,F02,famous,B,41,1433,TRUE,s011,<undefined>,-0.2211,0.17857,<undefined>,0.15385,0.012821,-0.14211,-0.48698,-0.41667,<undefined>,<undefined>,0.375,-0.45476,-0.037479,-0.21516
D93,devprop,F02,famous,B,93,884,TRUE,s012,<undefined>,-0.26119,0.020921,<undefined>,0.006599,-0.24541,-0.27895,-0.56285,-0.75,<undefined>,0.375,<undefined>,-0.72175,-0.42494,-0.31538
D94,devprop,F02,famous,B,45,1007,TRUE,s013,<undefined>,-0.22388,0.053571,<undefined>,0.19561,0.03004,-0.24285,-0.10888,-0.02381,<undefined>,-0.45476,-0.72175,<undefined>,-0.0074692,-0.22021
D95,devprop,F02,famous,B,108,778,TRUE,s014,<undefined>,-0.14179,-0.12447,<undefined>,0,-0.14103,-0.24737,-0.27778,-0.15,<undefined>,-0.037479,-0.42494,-0.0074692,<undefined>,-0.13077
D96,devprop,F02,famous,B,96,3371,TRUE,s015,<undefined>,0.25373,-0.29054,<undefined>,-0.10373,-0.062632,0.0758,-0.32372,-0.20769,<undefined>,-0.21516,-0.31538,-0.22021,-0.13077,<undefined>
D06,devprop,F02,famous,C,153,2272,FALSE,s001,<undefined>,<undefined>,<undefined>,<undefined>,<undefined>,<undefined>,<undefined>,<undefined>,<undefined>,<undefined>,<undefined>,<undefined>,<undefined>,<undefined>,<undefined>
D08,devprop,F02,famous,C,46,3839,TRUE,s002,<undefined>,<undefined>,0.3866,<undefined>,-0.31944,0.11384,-0.14345,<undefined>,-0.20833,<undefined>,0.034722,-0.2002,-0.18056,-0.24166,0.34722
D13,devprop,F02,famous,C,72,5542,TRUE,s003,<undefined>,0.3866,<undefined>,<undefined>,-0.26289,0.030347,-0.036663,<undefined>,-0.28351,<undefined>,-0.10309,-0.1701,-0.2757,-0.25493,0.22769
D14,devprop,F02,famous,C,126,1504,FALSE,s004,<undefined>,<undefined>,<undefined>,<undefined>,<undefined>,<undefined>,<undefined>,<undefined>,<undefined>,<undefined>,<undefined>,<undefined>,<undefined>,<undefined>,<undefined>
D15,devprop,F02,famous,C,63,954,TRUE,s005,<undefined>,-0.31944,-0.26289,<undefined>,<undefined>,-0.25,-0.21791,<undefined>,-0.14017,<undefined>,-0.2037,0.3,-0.28284,-0.1,-0.25714
D16,devprop,F02,famous,C,78,6950,TRUE,s006,<undefined>,0.11384,0.030347,<undefined>,-0.25,<undefined>,-0.059819,<undefined>,-0.28125,<undefined>,-0.098958,-0.16667,-0.22917,-0.17693,0.19107
D17,devprop,F02,famous,C,17,2955,TRUE,s007,<undefined>,-0.14345,-0.036663,<undefined>,-0.21791,-0.059819,<undefined>,<undefined>,-0.22727,<undefined>,-0.16364,-0.063636,-0.19532,0.21818,0.022864
D18,devprop,F02,famous,C,11,2229,FALSE,s008,<undefined>,<undefined>,<undefined>,<undefined>,<undefined>,<undefined>,<undefined>,<undefined>,<undefined>,<undefined>,<undefined>,<undefined>,<undefined>,<undefined>,<undefined>
D90,devprop,F02,famous,C,45,822,TRUE,s009,<undefined>,-0.20833,-0.28351,<undefined>,-0.14017,-0.28125,-0.22727,<undefined>,<undefined>,<undefined>,0.16667,-0.17475,0.35,-0.18571,-0.2
D91,devprop,F02,famous,C,123,1752,FALSE,s010,<undefined>,<undefined>,<undefined>,<undefined>,<undefined>,<undefined>,<undefined>,<undefined>,<undefined>,<undefined>,<undefined>,<undefined>,<undefined>,<undefined>,<undefined>
D92,devprop,F02,famous,C,28,1530,TRUE,s011,<undefined>,0.034722,-0.10309,<undefined>,-0.2037,-0.098958,-0.16364,<undefined>,0.16667,<undefined>,<undefined>,-0.28333,0.2037,-0.15875,0.021429
D93,devprop,F02,famous,C,24,1691,TRUE,s012,<undefined>,-0.2002,-0.1701,<undefined>,0.3,-0.16667,-0.063636,<undefined>,-0.17475,<undefined>,-0.28333,<undefined>,-0.28856,-0.033053,-0.18673
D94,devprop,F02,famous,C,139,1052,TRUE,s013,<undefined>,-0.18056,-0.2757,<undefined>,-0.28284,-0.22917,-0.19532,<undefined>,0.35,<undefined>,0.2037,-0.28856,<undefined>,-0.16898,-0.17489
D95,devprop,F02,famous,C,130,1703,TRUE,s014,<undefined>,-0.24166,-0.25493,<undefined>,-0.1,-0.17693,0.21818,<undefined>,-0.18571,<undefined>,-0.15875,-0.033053,-0.16898,<undefined>,-0.20326
D96,devprop,F02,famous,C,74,3707,TRUE,s015,<undefined>,0.34722,0.22769,<undefined>,-0.25714,0.19107,0.022864,<undefined>,-0.2,<undefined>,0.021429,-0.18673,-0.17489,-0.20326,<undefined>
D06,devprop,F02,famous,D,105,3955,FALSE,s001,<undefined>,<undefined>,<undefined>,<undefined>,<undefined>,<undefined>,<undefined>,<undefined>,<undefined>,<undefined>,<undefined>,<undefined>,<undefined>,<undefined>,<undefined>
D08,devprop,F02,famous,D,14,6767,TRUE,s002,<undefined>,<undefined>,-0.085076,<undefined>,0.0028595,0.013054,-0.028567,-0.22778,-0.15523,<undefined>,-0.25,-0.18889,-0.34984,-0.10556,<undefined>
D13,devprop,F02,famous,D,28,3906,TRUE,s003,<undefined>,-0.085076,<undefined>,<undefined>,-0.032895,0.12625,0.37726,-0.15132,-0.21691,<undefined>,-0.34868,-0.25,-0.15789,-0.067853,<undefined>
D14,devprop,F02,famous,D,44,1775,FALSE,s004,<undefined>,<undefined>,<undefined>,<undefined>,<undefined>,<undefined>,<undefined>,<undefined>,<undefined>,<undefined>,<undefined>,<undefined>,<undefined>,<undefined>,<undefined>
D15,devprop,F02,famous,D,25,1822,TRUE,s005,<undefined>,0.0028595,-0.032895,<undefined>,<undefined>,-0.16661,-0.068493,-0.30303,-0.14522,<undefined>,-0.055407,-0.045455,-0.10606,-0.091188,<undefined>
D16,devprop,F02,famous,D,55,7073,TRUE,s006,<undefined>,0.013054,0.12625,<undefined>,-0.16661,<undefined>,0.15684,-0.11863,-0.19829,<undefined>,-0.29891,-0.23913,-0.23913,-0.025309,<undefined>
D17,devprop,F02,famous,D,39,3815,TRUE,s007,<undefined>,-0.028567,0.37726,<undefined>,-0.068493,0.15684,<undefined>,0,-0.34461,<undefined>,-0.25792,-0.17123,-0.22603,-0.04442,<undefined>
D18,devprop,F02,famous,D,157,1387,TRUE,s008,<undefined>,-0.22778,-0.15132,<undefined>,-0.30303,-0.11863,0,<undefined>,-0.13651,<undefined>,-0.024328,-0.35448,0.040214,0.22895,<undefined>
D90,devprop,F02,famous,D,46,1946,TRUE,s009,<undefined>,-0.15523,-0.21691,<undefined>,-0.14522,-0.19829,-0.34461,-0.13651,<undefined>,<undefined>,-0.125,-0.21269,-0.085307,0.053482,<undefined>
D91,devprop,F02,famous,D,126,2266,FALSE,s010,<undefined>,<undefined>,<undefined>,<undefined>,<undefined>,<undefined>,<undefined>,<undefined>,<undefined>,<undefined>,<undefined>,<undefined>,<undefined>,<undefined>,<undefined>
D92,devprop,F02,famous,D,110,932,TRUE,s011,<undefined>,-0.25,-0.34868,<undefined>,-0.055407,-0.29891,-0.25792,-0.024328,-0.125,<undefined>,<undefined>,-0.27206,-0.15237,-0.072524,<undefined>
D93,devprop,F02,famous,D,87,1738,TRUE,s012,<undefined>,-0.18889,-0.25,<undefined>,-0.045455,-0.23913,-0.17123,-0.35448,-0.21269,<undefined>,-0.27206,<undefined>,-0.27273,-0.091566,<undefined>
D94,devprop,F02,famous,D,118,857,TRUE,s013,<undefined>,-0.34984,-0.15789,<undefined>,-0.10606,-0.23913,-0.22603,0.040214,-0.085307,<undefined>,-0.15237,-0.27273,<undefined>,-0.12161,<undefined>
D95,devprop,F02,famous,D,69,2340,TRUE,s014,<undefined>,-0.10556,-0.067853,<undefined>,-0.091188,-0.025309,-0.04442,0.22895,0.053482,<undefined>,-0.072524,-0.091566,-0.12161,<undefined>,<undefined>
D96,devprop,F02,famous,D,38,4737,FALSE,s015,<undefined>,<undefined>,<undefined>,<undefined>,<undefined>,<undefined>,<undefined>,<undefined>,<undefined>,<undefined>,<undefined>,<undefined>,<undefined>,<undefined>,<undefined>
D06,devprop,F03,famous,A,13,1554,TRUE,s001,<undefined>,-0.15979,0.62,-0.091549,0.125,-0.055556,-0.18292,0.02206,-0.63154,-0.039892,0.5,-0.21129,0.0064238,-0.15176,0.50061
D08,devprop,F03,famous,A,38,5788,TRUE,s002,-0.15979,<undefined>,-0.21649,-0.029892,-0.1701,-0.013695,0.0011879,-0.26804,-0.47423,-0.31355,-0.25258,-0.33505,-0.20619,-0.31001,-0.23711
D13,devprop,F03,famous,A,55,1401,TRUE,s003,0.62,-0.21649,<undefined>,-0.042254,-0.06,-0.048611,-0.17935,-0.20569,-0.44971,0.095081,0.42,-0.28627,-0.0024506,-0.21255,0.38343
D14,devprop,F03,famous,A,17,4354,TRUE,s004,-0.091549,-0.029892,-0.042254,<undefined>,-0.20423,0.0069444,-0.014439,-0.23944,-0.30986,-0.15251,-0.16197,-0.41066,-0.063173,-0.22535,-0.17585
D15,devprop,F03,famous,A,96,1500,TRUE,s005,0.125,-0.1701,-0.06,-0.20423,<undefined>,-0.15278,-0.20729,-0.21783,-0.5625,-0.40492,-0.083333,-0.086294,-0.19211,-0.058312,0.0625
D16,devprop,F03,famous,A,5,3597,TRUE,s006,-0.055556,-0.013695,-0.048611,0.0069444,-0.15278,<undefined>,-0.021739,-0.29861,-0.52083,-0.21528,-0.16667,-0.38412,-0.11806,-0.27083,-0.14583
D17,devprop,F03,famous,A,141,4836,TRUE,s007,-0.18292,0.0011879,-0.17935,-0.014439,-0.20729,-0.021739,<undefined>,-0.26444,-0.39674,-0.14674,-0.23913,-0.30435,-0.20109,-0.20109,-0.16848
D18,devprop,F03,famous,A,48,1178,TRUE,s008,0.02206,-0.26804,-0.20569,-0.23944,-0.21783,-0.29861,-0.26444,<undefined>,-0.67018,-0.068966,-0.24531,-0.36211,0.095081,-0.19501,-0.072037
D90,devprop,F03,famous,A,73,1066,TRUE,s009,-0.63154,-0.47423,-0.44971,-0.30986,-0.5625,-0.52083,-0.39674,-0.67018,<undefined>,-0.31871,-0.5872,-0.23684,-0.55172,-0.36842,-0.42732
D91,devprop,F03,famous,A,48,1444,TRUE,s010,-0.039892,-0.31355,0.095081,-0.15251,-0.40492,-0.21528,-0.14674,-0.068966,-0.31871,<undefined>,-0.13497,-0.025608,-0.028566,0.10345,0.2473
D92,devprop,F03,famous,A,138,988,TRUE,s011,0.5,-0.25258,0.42,-0.16197,-0.083333,-0.16667,-0.23913,-0.24531,-0.5872,-0.13497,<undefined>,-0.608,0.086207,-0.011996,0.20311
D93,devprop,F03,famous,A,120,950,TRUE,s012,-0.21129,-0.33505,-0.28627,-0.41066,-0.086294,-0.38412,-0.30435,-0.36211,-0.23684,-0.025608,-0.608,<undefined>,-0.40145,0.066177,0.19565
D94,devprop,F03,famous,A,68,1428,TRUE,s013,0.0064238,-0.20619,-0.0024506,-0.063173,-0.19211,-0.11806,-0.20109,0.095081,-0.55172,-0.028566,0.086207,-0.40145,<undefined>,0.026116,-0.04285
D95,devprop,F03,famous,A,156,971,TRUE,s014,-0.15176,-0.31001,-0.21255,-0.22535,-0.058312,-0.27083,-0.20109,-0.19501,-0.36842,0.10345,-0.011996,0.066177,0.026116,<undefined>,-0.061488
D96,devprop,F03,famous,A,118,1297,TRUE,s015,0.50061,-0.23711,0.38343,-0.17585,0.0625,-0.14583,-0.16848,-0.072037,-0.42732,0.2473,0.20311,0.19565,-0.04285,-0.061488,<undefined>
D06,devprop,F03,famous,B,136,1368,TRUE,s001,<undefined>,0.058824,-0.11941,-0.17802,-0.25676,0.15789,-0.21875,0.32857,-0.11364,0.20455,0.034425,-0.14739,-0.056484,0.041667,0.052632
D08,devprop,F03,famous,B,96,1683,TRUE,s002,0.058824,<undefined>,-0.20458,0.12968,-0.29418,0.31579,-0.2177,0.47143,-0.18822,0.10294,-0.19997,-0.29621,-0.30543,0.066826,0.21053
D13,devprop,F03,famous,B,20,1244,TRUE,s003,-0.11941,-0.20458,<undefined>,-0.19472,-0.081081,-0.18756,-0.27068,-0.11835,-0.13255,-0.40284,-0.10284,-0.093137,0.14,0.14,-0.11126
D14,devprop,F03,famous,B,2,3288,TRUE,s004,-0.17802,0.12968,-0.19472,<undefined>,0.1066,0.092534,-0.22112,0.079563,-0.2,-0.046154,-0.16791,-0.16154,-0.066591,-0.0076923,0.18594
D15,devprop,F03,famous,B,27,2034,TRUE,s005,-0.25676,-0.29418,-0.081081,0.1066,<undefined>,-0.27554,-0.27752,-0.25364,0.027027,-0.1305,0.056373,-0.094595,0.013514,-0.031266,0.07482
D16,devprop,F03,famous,B,79,2365,TRUE,s006,0.15789,0.31579,-0.18756,0.092534,-0.27554,<undefined>,-0.098065,0.50226,-0.15564,-0.0041277,-0.16615,-0.23871,-0.18795,0.055276,0.13158
D17,devprop,F03,famous,B,30,6320,TRUE,s007,-0.21875,-0.2177,-0.27068,-0.22112,-0.27752,-0.098065,<undefined>,-0.16146,-0.30729,-0.30193,-0.20833,-0.29167,-0.36711,-0.21339,-0.20476
D18,devprop,F03,famous,B,45,1712,TRUE,s008,0.32857,0.47143,-0.11835,0.079563,-0.25364,0.50226,-0.16146,<undefined>,-0.19713,0.07388,-0.11877,-0.20448,-0.15427,0.14531,0.10752
D90,devprop,F03,famous,B,118,958,TRUE,s009,-0.11364,-0.18822,-0.13255,-0.2,0.027027,-0.15564,-0.30729,-0.19713,<undefined>,-0.078898,0.325,0.25953,-0.26883,-0.07261,-0.013158
D91,devprop,F03,famous,B,144,1091,TRUE,s010,0.20455,0.10294,-0.40284,-0.046154,-0.1305,-0.0041277,-0.30193,0.07388,-0.078898,<undefined>,-0.29318,-0.13877,-0.40842,0.020833,0.30263
D92,devprop,F03,famous,B,40,1171,TRUE,s011,0.034425,-0.19997,-0.10284,-0.16791,0.056373,-0.16615,-0.20833,-0.11877,0.325,-0.29318,<undefined>,0.15,-0.54545,-0.14522,0.0090302
D93,devprop,F03,famous,B,10,1150,TRUE,s012,-0.14739,-0.29621,-0.093137,-0.16154,-0.094595,-0.23871,-0.29167,-0.20448,0.25953,-0.13877,0.15,<undefined>,-0.22727,-0.027369,-0.0109
D94,devprop,F03,famous,B,147,1100,TRUE,s013,-0.056484,-0.30543,0.14,-0.066591,0.013514,-0.18795,-0.36711,-0.15427,-0.26883,-0.40842,-0.54545,-0.22727,<undefined>,0.12204,-0.28231
D95,devprop,F03,famous,B,11,1199,TRUE,s014,0.041667,0.066826,0.14,-0.0076923,-0.031266,0.055276,-0.21339,0.14531,-0.07261,0.020833,-0.14522,-0.027369,0.12204,<undefined>,-0.012771
D96,devprop,F03,famous,B,94,2131,TRUE,s015,0.052632,0.21053,-0.11126,0.18594,0.07482,0.13158,-0.20476,0.10752,-0.013158,0.30263,0.0090302,-0.0109,-0.28231,-0.012771,<undefined>
D06,devprop,F03,famous,C,72,2099,TRUE,s001,<undefined>,-0.14045,-0.15493,<undefined>,-0.11427,0.23148,-0.086436,0.052661,0.057143,0.031443,0.014286,-0.31429,0.11429,0.042857,0.0055556
D08,devprop,F03,famous,C,155,1801,TRUE,s002,-0.14045,<undefined>,-0.1513,<undefined>,-0.13459,-0.10158,-0.036889,0.19444,-0.18253,-0.14801,0.055556,-0.36547,-0.18056,-0.069036,-0.20539
D13,devprop,F03,famous,C,14,3713,TRUE,s003,-0.15493,-0.1513,<undefined>,<undefined>,-0.10443,0.076464,0.040146,-0.080882,-0.38028,-0.25694,-0.1338,-0.35211,-0.16901,0.011875,-0.17045
D14,devprop,F03,famous,C,108,2056,FALSE,s004,<undefined>,<undefined>,<undefined>,<undefined>,<undefined>,<undefined>,<undefined>,<undefined>,<undefined>,<undefined>,<undefined>,<undefined>,<undefined>,<undefined>,<undefined>
D15,devprop,F03,famous,C,64,2528,TRUE,s005,-0.11427,-0.13459,-0.10443,<undefined>,<undefined>,-0.01003,-0.14448,-0.21111,-0.2,-0.3073,-0.14444,-0.33333,-0.19237,0.046351,-0.046977
D16,devprop,F03,famous,C,30,3095,TRUE,s006,0.23148,-0.10158,0.076464,<undefined>,-0.01003,<undefined>,0.089693,-0.074074,-0.12037,0.027778,-0.12328,-0.38412,-0.027778,-0.050517,0.15095
D17,devprop,F03,famous,C,126,4247,TRUE,s007,-0.086436,-0.036889,0.040146,<undefined>,-0.14448,0.089693,<undefined>,-0.0063291,-0.29114,-0.12658,-0.082278,-0.36709,-0.3038,-0.06962,0.061438
D18,devprop,F03,famous,C,80,1264,TRUE,s008,0.052661,0.19444,-0.080882,<undefined>,-0.21111,-0.074074,-0.0063291,<undefined>,-0.057692,0.19844,0.38462,-0.25,-0.051093,0.061929,-0.24444
D90,devprop,F03,famous,C,131,892,TRUE,s009,0.057143,-0.18253,-0.38028,<undefined>,-0.2,-0.12037,-0.29114,-0.057692,<undefined>,0.037037,0.068182,-0.14951,-0.058824,-0.31667,-0.27222
D91,devprop,F03,famous,C,158,1306,TRUE,s010,0.031443,-0.14801,-0.25694,<undefined>,-0.3073,0.027778,-0.12658,0.19844,0.037037,<undefined>,0.096315,-0.25926,-0.10103,-0.18807,-0.094444
D92,devprop,F03,famous,C,157,1266,TRUE,s011,0.014286,0.055556,-0.1338,<undefined>,-0.14444,-0.12328,-0.082278,0.38462,0.068182,0.096315,<undefined>,-0.022727,-0.17012,0.1424,-0.21111
D93,devprop,F03,famous,C,39,956,TRUE,s012,-0.31429,-0.36547,-0.35211,<undefined>,-0.33333,-0.38412,-0.36709,-0.25,-0.14951,-0.25926,-0.022727,<undefined>,-0.21511,-0.15,-0.38333
D94,devprop,F03,famous,C,89,812,TRUE,s013,0.11429,-0.18056,-0.16901,<undefined>,-0.19237,-0.027778,-0.3038,-0.051093,-0.058824,-0.10103,-0.17012,-0.21511,<undefined>,0.21667,-0.21667
D95,devprop,F03,famous,C,24,1485,TRUE,s014,0.042857,-0.069036,0.011875,<undefined>,0.046351,-0.050517,-0.06962,0.061929,-0.31667,-0.18807,0.1424,-0.15,0.21667,<undefined>,-0.18968
D96,devprop,F03,famous,C,20,4874,TRUE,s015,0.0055556,-0.20539,-0.17045,<undefined>,-0.046977,0.15095,0.061438,-0.24444,-0.27222,-0.094444,-0.21111,-0.38333,-0.21667,-0.18968,<undefined>
D06,devprop,F03,famous,D,30,1435,TRUE,s001,<undefined>,-0.045768,0.15097,<undefined>,<undefined>,0.12722,<undefined>,0.34945,0.095238,<undefined>,0.52381,0.047619,0.0038994,0.16689,-0.12308
D08,devprop,F03,famous,D,112,2439,TRUE,s002,-0.045768,<undefined>,0.20408,<undefined>,<undefined>,-0.1172,<undefined>,0.042567,-0.17667,<undefined>,-0.098539,-0.32653,-0.14606,0.030612,-0.044608
D13,devprop,F03,famous,D,63,1986,TRUE,s003,0.15097,0.20408,<undefined>,<undefined>,<undefined>,0.040541,<undefined>,0.28378,0.027027,<undefined>,-0.027027,-0.13514,-0.053656,-0.0042393,0.15385
D14,devprop,F03,famous,D,49,3379,FALSE,s004,<undefined>,<undefined>,<undefined>,<undefined>,<undefined>,<undefined>,<undefined>,<undefined>,<undefined>,<undefined>,<undefined>,<undefined>,<undefined>,<undefined>,<undefined>
D15,devprop,F03,famous,D,12,1446,FALSE,s005,<undefined>,<undefined>,<undefined>,<undefined>,<undefined>,<undefined>,<undefined>,<undefined>,<undefined>,<undefined>,<undefined>,<undefined>,<undefined>,<undefined>,<undefined>
D16,devprop,F03,famous,D,87,1056,TRUE,s006,0.12722,-0.1172,0.040541,<undefined>,<undefined>,<undefined>,<undefined>,0.23077,-0.035364,<undefined>,0.19444,-0.13889,-0.19285,-0.075312,-0.19231
D17,devprop,F03,famous,D,106,3308,FALSE,s007,<undefined>,<undefined>,<undefined>,<undefined>,<undefined>,<undefined>,<undefined>,<undefined>,<undefined>,<undefined>,<undefined>,<undefined>,<undefined>,<undefined>,<undefined>
D18,devprop,F03,famous,D,66,1355,TRUE,s008,0.34945,0.042567,0.28378,<undefined>,<undefined>,0.23077,<undefined>,<undefined>,-0.096154,<undefined>,0.17308,0.019231,0.099453,0.18298,-0.1345
D90,devprop,F03,famous,D,122,1197,TRUE,s009,0.095238,-0.17667,0.027027,<undefined>,<undefined>,-0.035364,<undefined>,-0.096154,<undefined>,<undefined>,0.047619,-0.30544,-0.014929,-0.21557,-0.015385
D91,devprop,F03,famous,D,76,2225,FALSE,s010,<undefined>,<undefined>,<undefined>,<undefined>,<undefined>,<undefined>,<undefined>,<undefined>,<undefined>,<undefined>,<undefined>,<undefined>,<undefined>,<undefined>,<undefined>
D92,devprop,F03,famous,D,79,1265,TRUE,s011,0.52381,-0.098539,-0.027027,<undefined>,<undefined>,0.19444,<undefined>,0.17308,0.047619,<undefined>,<undefined>,0,-0.08701,-0.0071297,-0.23077
D93,devprop,F03,famous,D,67,980,TRUE,s012,0.047619,-0.32653,-0.13514,<undefined>,<undefined>,-0.13889,<undefined>,0.019231,-0.30544,<undefined>,0,<undefined>,-0.2344,-0.17012,-0.28967
D94,devprop,F03,famous,D,79,1062,TRUE,s013,0.0038994,-0.14606,-0.053656,<undefined>,<undefined>,-0.19285,<undefined>,0.099453,-0.014929,<undefined>,-0.08701,-0.2344,<undefined>,0.22727,-0.2279
D95,devprop,F03,famous,D,129,1220,TRUE,s014,0.16689,0.030612,-0.0042393,<undefined>,<undefined>,-0.075312,<undefined>,0.18298,-0.21557,<undefined>,-0.0071297,-0.17012,0.22727,<undefined>,-0.22681
D96,devprop,F03,famous,D,62,3357,TRUE,s015,-0.12308,-0.044608,0.15385,<undefined>,<undefined>,-0.19231,<undefined>,-0.1345,-0.015385,<undefined>,-0.23077,-0.28967,-0.2279,-0.22681,<undefined>
D06,devprop,F04,famous,A,122,2574,FALSE,s001,<undefined>,<undefined>,<undefined>,<undefined>,<undefined>,<undefined>,<undefined>,<undefined>,<undefined>,<undefined>,<undefined>,<undefined>,<undefined>,<undefined>,<undefined>
D08,devprop,F04,famous,A,31,2509,TRUE,s002,<undefined>,<undefined>,-0.286,<undefined>,-0.098805,0.2,-0.0012691,-0.019046,-0.125,0.1875,-0.041667,-0.34344,-0.26042,-0.19582,0.082376
D13,devprop,F04,famous,A,127,874,TRUE,s003,<undefined>,-0.286,<undefined>,<undefined>,-0.16615,-0.26381,-0.31224,-0.16627,-0.30079,-0.34222,-0.32775,0.16667,-0.36111,0.44921,-0.33571
D14,devprop,F04,famous,A,150,1860,FALSE,s004,<undefined>,<undefined>,<undefined>,<undefined>,<undefined>,<undefined>,<undefined>,<undefined>,<undefined>,<undefined>,<undefined>,<undefined>,<undefined>,<undefined>,<undefined>
D15,devprop,F04,famous,A,119,1110,TRUE,s005,<undefined>,-0.098805,-0.16615,<undefined>,<undefined>,-0.20952,-0.22321,-0.24,0.078947,0.2161,0.53986,0.17673,-0.31579,0.030831,-0.29017
D16,devprop,F04,famous,A,65,3101,TRUE,s006,<undefined>,0.2,-0.26381,<undefined>,-0.20952,<undefined>,0.045956,-0.23881,-0.28333,0.033333,-0.15,-0.39832,-0.375,-0.25952,0.065181
D17,devprop,F04,famous,A,16,2987,TRUE,s007,<undefined>,-0.0012691,-0.31224,<undefined>,-0.22321,0.045956,<undefined>,-0.29898,-0.27219,-0.125,-0.19336,-0.34616,-0.38086,-0.33902,-0.3125
D18,devprop,F04,famous,A,129,1228,TRUE,s008,<undefined>,-0.019046,-0.16627,<undefined>,-0.24,-0.23881,-0.29898,<undefined>,-0.47255,-0.01598,-0.06,-0.76627,-0.14627,0.0068629,-0.3953
D90,devprop,F04,famous,A,90,925,TRUE,s009,<undefined>,-0.125,-0.30079,<undefined>,0.078947,-0.28333,-0.27219,-0.47255,<undefined>,0.055964,0.125,-0.33728,-0.046415,-0.16133,-0.20312
D91,devprop,F04,famous,A,41,1269,TRUE,s010,<undefined>,0.1875,-0.34222,<undefined>,0.2161,0.033333,-0.125,-0.01598,0.055964,<undefined>,0.38215,-0.4184,-0.1875,-0.21068,-0.09486
D92,devprop,F04,famous,A,99,972,TRUE,s011,<undefined>,-0.041667,-0.32775,<undefined>,0.53986,-0.15,-0.19336,-0.06,0.125,0.38215,<undefined>,-0.29915,-0.28125,-0.12687,-0.26674
D93,devprop,F04,famous,A,110,1191,TRUE,s012,<undefined>,-0.34344,0.16667,<undefined>,0.17673,-0.39832,-0.34616,-0.76627,-0.33728,-0.4184,-0.29915,<undefined>,-0.69444,-0.28649,-0.25
D94,devprop,F04,famous,A,3,740,TRUE,s013,<undefined>,-0.26042,-0.36111,<undefined>,-0.31579,-0.375,-0.38086,-0.14627,-0.046415,-0.1875,-0.28125,-0.69444,<undefined>,-0.35294,-0.25781
D95,devprop,F04,famous,A,81,835,TRUE,s014,<undefined>,-0.19582,0.44921,<undefined>,0.030831,-0.25952,-0.33902,0.0068629,-0.16133,-0.21068,-0.12687,-0.28649,-0.35294,<undefined>,-0.39419
D96,devprop,F04,famous,A,89,3309,TRUE,s015,<undefined>,0.082376,-0.33571,<undefined>,-0.29017,0.065181,-0.3125,-0.3953,-0.20312,-0.09486,-0.26674,-0.25,-0.25781,-0.39419,<undefined>
D06,devprop,F04,famous,B,156,6021,FALSE,s001,<undefined>,<undefined>,<undefined>,<undefined>,<undefined>,<undefined>,<undefined>,<undefined>,<undefined>,<undefined>,<undefined>,<undefined>,<undefined>,<undefined>,<undefined>
D08,devprop,F04,famous,B,11,1988,TRUE,s002,<undefined>,<undefined>,0.13964,<undefined>,0.0125,-0.11036,-0.072487,<undefined>,-0.21642,-0.074632,0.054776,-0.081066,-0.3682,-0.125,0.13865
D13,devprop,F04,famous,B,125,1477,TRUE,s003,<undefined>,0.13964,<undefined>,<undefined>,0.15,-0.027614,0.12929,<undefined>,-0.26667,0.1143,-0.006276,0.058579,-0.013807,0.23333,0.30325
D14,devprop,F04,famous,B,133,1682,FALSE,s004,<undefined>,<undefined>,<undefined>,<undefined>,<undefined>,<undefined>,<undefined>,<undefined>,<undefined>,<undefined>,<undefined>,<undefined>,<undefined>,<undefined>,<undefined>
D15,devprop,F04,famous,B,143,1070,TRUE,s005,<undefined>,0.0125,0.15,<undefined>,<undefined>,0.36111,-0.1625,<undefined>,-0.20588,-0.23529,-0.17792,0.15297,-0.29325,-0.027778,-0.075646
D16,devprop,F04,famous,B,75,1070,TRUE,s006,<undefined>,-0.11036,-0.027614,<undefined>,0.36111,<undefined>,0,<undefined>,-0.16667,-0.19444,-0.26385,-0.20316,-0.13412,-0.069036,-0.17792
D17,devprop,F04,famous,B,84,2186,TRUE,s007,<undefined>,-0.072487,0.12929,<undefined>,-0.1625,0,<undefined>,<undefined>,-0.25,-0.0625,0.14784,-0.37678,-0.05,-0.025,0.13085
D18,devprop,F04,famous,B,8,5366,FALSE,s008,<undefined>,<undefined>,<undefined>,<undefined>,<undefined>,<undefined>,<undefined>,<undefined>,<undefined>,<undefined>,<undefined>,<undefined>,<undefined>,<undefined>,<undefined>
D90,devprop,F04,famous,B,160,866,TRUE,s009,<undefined>,-0.21642,-0.26667,<undefined>,-0.20588,-0.16667,-0.25,<undefined>,<undefined>,-0.088235,-0.22727,-0.7612,-0.45118,-0.61111,-0.25
D91,devprop,F04,famous,B,106,843,TRUE,s010,<undefined>,-0.074632,0.1143,<undefined>,-0.23529,-0.19444,-0.0625,<undefined>,-0.088235,<undefined>,-0.20455,-0.70502,0.30926,-0.17538,0.047404
D92,devprop,F04,famous,B,23,3540,TRUE,s011,<undefined>,0.054776,-0.006276,<undefined>,-0.17792,-0.26385,0.14784,<undefined>,-0.22727,-0.20455,<undefined>,-0.18182,-0.22727,-0.16667,0.099785
D93,devprop,F04,famous,B,4,938,TRUE,s012,<undefined>,-0.081066,0.058579,<undefined>,0.15297,-0.20316,-0.37678,<undefined>,-0.7612,-0.70502,-0.18182,<undefined>,-0.80305,0.055556,-0.090909
D94,devprop,F04,famous,B,122,728,TRUE,s013,<undefined>,-0.3682,-0.013807,<undefined>,-0.29325,-0.13412,-0.05,<undefined>,-0.45118,0.30926,-0.22727,-0.80305,<undefined>,0.15319,-0.090909
D95,devprop,F04,famous,B,118,885,TRUE,s014,<undefined>,-0.125,0.23333,<undefined>,-0.027778,-0.069036,-0.025,<undefined>,-0.61111,-0.17538,-0.16667,0.055556,0.15319,<undefined>,-0.068182
D96,devprop,F04,famous,B,145,2283,TRUE,s015,<undefined>,0.13865,0.30325,<undefined>,-0.075646,-0.17792,0.13085,<undefined>,-0.25,0.047404,0.099785,-0.090909,-0.090909,-0.068182,<undefined>
D06,devprop,F04,famous,C,82,2289,FALSE,s001,<undefined>,<undefined>,<undefined>,<undefined>,<undefined>,<undefined>,<undefined>,<undefined>,<undefined>,<undefined>,<undefined>,<undefined>,<undefined>,<undefined>,<undefined>
D08,devprop,F04,famous,C,158,4821,FALSE,s002,<undefined>,<undefined>,<undefined>,<undefined>,<undefined>,<undefined>,<undefined>,<undefined>,<undefined>,<undefined>,<undefined>,<undefined>,<undefined>,<undefined>,<undefined>
D13,devprop,F04,famous,C,10,1697,TRUE,s003,<undefined>,<undefined>,<undefined>,<undefined>,0.11818,-0.025264,<undefined>,<undefined>,-0.39706,-0.19683,-0.064264,<undefined>,-0.25,0.23416,-0.30913
D14,devprop,F04,famous,C,63,1742,FALSE,s004,<undefined>,<undefined>,<undefined>,<undefined>,<undefined>,<undefined>,<undefined>,<undefined>,<undefined>,<undefined>,<undefined>,<undefined>,<undefined>,<undefined>,<undefined>
D15,devprop,F04,famous,C,51,2929,TRUE,s005,<undefined>,<undefined>,0.11818,<undefined>,<undefined>,0.27014,<undefined>,<undefined>,-0.054545,0.0051104,0.17273,<undefined>,-0.18935,0.27585,-0.1184
D16,devprop,F04,famous,C,141,2265,TRUE,s006,<undefined>,<undefined>,-0.025264,<undefined>,0.27014,<undefined>,<undefined>,<undefined>,0.051282,0.056663,-0.029411,<undefined>,-0.098165,0.22196,-0.06509
D17,devprop,F04,famous,C,90,2775,FALSE,s007,<undefined>,<undefined>,<undefined>,<undefined>,<undefined>,<undefined>,<undefined>,<undefined>,<undefined>,<undefined>,<undefined>,<undefined>,<undefined>,<undefined>,<undefined>
D18,devprop,F04,famous,C,83,2194,FALSE,s008,<undefined>,<undefined>,<undefined>,<undefined>,<undefined>,<undefined>,<undefined>,<undefined>,<undefined>,<undefined>,<undefined>,<undefined>,<undefined>,<undefined>,<undefined>
D90,devprop,F04,famous,C,43,1063,TRUE,s009,<undefined>,<undefined>,-0.39706,<undefined>,-0.054545,0.051282,<undefined>,<undefined>,<undefined>,-0.084746,-0.23,<undefined>,0.14512,-0.16655,-0.20619
D91,devprop,F04,famous,C,61,2999,TRUE,s010,<undefined>,<undefined>,-0.19683,<undefined>,0.0051104,0.056663,<undefined>,<undefined>,-0.084746,<undefined>,-0.039465,<undefined>,-0.21452,-0.22345,-0.041237
D92,devprop,F04,famous,C,2,2662,TRUE,s011,<undefined>,<undefined>,-0.064264,<undefined>,0.17273,-0.029411,<undefined>,<undefined>,-0.23,-0.039465,<undefined>,<undefined>,-0.37971,-0.019706,-0.17584
D93,devprop,F04,famous,C,34,1177,FALSE,s012,<undefined>,<undefined>,<undefined>,<undefined>,<undefined>,<undefined>,<undefined>,<undefined>,<undefined>,<undefined>,<undefined>,<undefined>,<undefined>,<undefined>,<undefined>
D94,devprop,F04,famous,C,120,919,TRUE,s013,<undefined>,<undefined>,-0.25,<undefined>,-0.18935,-0.098165,<undefined>,<undefined>,0.14512,-0.21452,-0.37971,<undefined>,<undefined>,-0.11777,-0.30928
D95,devprop,F04,famous,C,74,2008,TRUE,s014,<undefined>,<undefined>,0.23416,<undefined>,0.27585,0.22196,<undefined>,<undefined>,-0.16655,-0.22345,-0.019706,<undefined>,-0.11777,<undefined>,-0.21265
D96,devprop,F04,famous,C,61,6032,TRUE,s015,<undefined>,<undefined>,-0.30913,<undefined>,-0.1184,-0.06509,<undefined>,<undefined>,-0.20619,-0.041237,-0.17584,<undefined>,-0.30928,-0.21265,<undefined>
D06,devprop,F04,famous,D,59,4152,FALSE,s001,<undefined>,<undefined>,<undefined>,<undefined>,<undefined>,<undefined>,<undefined>,<undefined>,<undefined>,<undefined>,<undefined>,<undefined>,<undefined>,<undefined>,<undefined>
D08,devprop,F04,famous,D,77,5816,TRUE,s002,<undefined>,<undefined>,<undefined>,<undefined>,-0.31919,0.0052083,0.12857,-0.30594,-0.32634,-0.22306,-0.39642,-0.44761,-0.30729,-0.23438,0.17218
D13,devprop,F04,famous,D,91,5507,FALSE,s003,<undefined>,<undefined>,<undefined>,<undefined>,<undefined>,<undefined>,<undefined>,<undefined>,<undefined>,<undefined>,<undefined>,<undefined>,<undefined>,<undefined>,<undefined>
D14,devprop,F04,famous,D,57,1536,FALSE,s004,<undefined>,<undefined>,<undefined>,<undefined>,<undefined>,<undefined>,<undefined>,<undefined>,<undefined>,<undefined>,<undefined>,<undefined>,<undefined>,<undefined>,<undefined>
D15,devprop,F04,famous,D,124,1200,TRUE,s005,<undefined>,-0.31919,<undefined>,<undefined>,<undefined>,-0.10215,-0.17904,-0.04927,0,-0.055088,0.26599,0.18301,-0.17391,0.052405,-0.19101
D16,devprop,F04,famous,D,85,2811,TRUE,s006,<undefined>,0.0052083,<undefined>,<undefined>,-0.10215,<undefined>,0.225,-0.08005,-0.16981,-0.009434,-0.056604,-0.2248,-0.1946,-0.018868,-0.082975
D17,devprop,F04,famous,D,77,3357,TRUE,s007,<undefined>,0.12857,<undefined>,<undefined>,-0.17904,0.225,<undefined>,0.02835,-0.20833,-0.066667,-0.24167,-0.35,-0.0083333,-0.075,0.047835
D18,devprop,F04,famous,D,57,2517,TRUE,s008,<undefined>,-0.30594,<undefined>,<undefined>,-0.04927,-0.08005,0.02835,<undefined>,-0.40816,-0.31633,-0.10204,-0.05102,-0.18367,-0.32653,-0.12905
D90,devprop,F04,famous,D,105,780,TRUE,s009,<undefined>,-0.32634,<undefined>,<undefined>,0,-0.16981,-0.20833,-0.40816,<undefined>,0.225,0.093282,-0.39997,-0.043478,0.24539,-0.2809
D91,devprop,F04,famous,D,157,982,TRUE,s010,<undefined>,-0.22306,<undefined>,<undefined>,-0.055088,-0.009434,-0.066667,-0.31633,0.225,<undefined>,-0.17855,-0.40711,0.021739,0.475,-0.20787
D92,devprop,F04,famous,D,49,956,TRUE,s011,<undefined>,-0.39642,<undefined>,<undefined>,0.26599,-0.056604,-0.24167,-0.10204,0.093282,-0.17855,<undefined>,0.4269,-0.13043,0.084921,-0.30802
D93,devprop,F04,famous,D,25,866,TRUE,s012,<undefined>,-0.44761,<undefined>,<undefined>,0.18301,-0.2248,-0.35,-0.05102,-0.39997,-0.40711,0.4269,<undefined>,-0.45961,-0.48818,-0.30241
D94,devprop,F04,famous,D,110,1111,TRUE,s013,<undefined>,-0.30729,<undefined>,<undefined>,-0.17391,-0.1946,-0.0083333,-0.18367,-0.043478,0.021739,-0.13043,-0.45961,<undefined>,0.050938,-0.24719
D95,devprop,F04,famous,D,136,815,TRUE,s014,<undefined>,-0.23438,<undefined>,<undefined>,0.052405,-0.018868,-0.075,-0.32653,0.24539,0.475,0.084921,-0.48818,0.050938,<undefined>,-0.21348
D96,devprop,F04,famous,D,88,4572,TRUE,s015,<undefined>,0.17218,<undefined>,<undefined>,-0.19101,-0.082975,0.047835,-0.12905,-0.2809,-0.20787,-0.30802,-0.30241,-0.24719,-0.21348,<undefined>
D06,devprop,F05,famous,A,135,3052,FALSE,s001,<undefined>,<undefined>,<undefined>,<undefined>,<undefined>,<undefined>,<undefined>,<undefined>,<undefined>,<undefined>,<undefined>,<undefined>,<undefined>,<undefined>,<undefined>
D08,devprop,F05,famous,A,120,2951,FALSE,s002,<undefined>,<undefined>,<undefined>,<undefined>,<undefined>,<undefined>,<undefined>,<undefined>,<undefined>,<undefined>,<undefined>,<undefined>,<undefined>,<undefined>,<undefined>
D13,devprop,F05,famous,A,108,3756,TRUE,s003,<undefined>,<undefined>,<undefined>,<undefined>,-0.16901,-0.1651,<undefined>,<undefined>,-0.21831,<undefined>,<undefined>,-0.084507,0.20849,-0.087925,-0.12755
D14,devprop,F05,famous,A,151,1324,FALSE,s004,<undefined>,<undefined>,<undefined>,<undefined>,<undefined>,<undefined>,<undefined>,<undefined>,<undefined>,<undefined>,<undefined>,<undefined>,<undefined>,<undefined>,<undefined>
D15,devprop,F05,famous,A,158,1235,TRUE,s005,<undefined>,<undefined>,-0.16901,<undefined>,<undefined>,-0.26046,<undefined>,<undefined>,0.10749,<undefined>,<undefined>,0.14815,-0.24911,-0.05756,-0.25518
D16,devprop,F05,famous,A,129,4485,TRUE,s006,<undefined>,<undefined>,-0.1651,<undefined>,-0.26046,<undefined>,<undefined>,<undefined>,-0.25382,<undefined>,<undefined>,-0.20232,0.027242,-0.040698,0.017613
D17,devprop,F05,famous,A,83,3410,FALSE,s007,<undefined>,<undefined>,<undefined>,<undefined>,<undefined>,<undefined>,<undefined>,<undefined>,<undefined>,<undefined>,<undefined>,<undefined>,<undefined>,<undefined>,<undefined>
D18,devprop,F05,famous,A,75,3114,FALSE,s008,<undefined>,<undefined>,<undefined>,<undefined>,<undefined>,<undefined>,<undefined>,<undefined>,<undefined>,<undefined>,<undefined>,<undefined>,<undefined>,<undefined>,<undefined>
D90,devprop,F05,famous,A,114,930,TRUE,s009,<undefined>,<undefined>,-0.21831,<undefined>,0.10749,-0.25382,<undefined>,<undefined>,<undefined>,<undefined>,<undefined>,0.18836,-0.29598,0.055853,-0.08311
D91,devprop,F05,famous,A,31,2111,FALSE,s010,<undefined>,<undefined>,<undefined>,<undefined>,<undefined>,<undefined>,<undefined>,<undefined>,<undefined>,<undefined>,<undefined>,<undefined>,<undefined>,<undefined>,<undefined>
D92,devprop,F05,famous,A,73,2332,FALSE,s011,<undefined>,<undefined>,<undefined>,<undefined>,<undefined>,<undefined>,<undefined>,<undefined>,<undefined>,<undefined>,<undefined>,<undefined>,<undefined>,<undefined>,<undefined>
D93,devprop,F05,famous,A,113,1434,TRUE,s012,<undefined>,<undefined>,-0.084507,<undefined>,0.14815,-0.20232,<undefined>,<undefined>,0.18836,<undefined>,<undefined>,<undefined>,-0.19598,-0.20388,-0.13374
D94,devprop,F05,famous,A,32,5281,TRUE,s013,<undefined>,<undefined>,0.20849,<undefined>,-0.24911,0.027242,<undefined>,<undefined>,-0.29598,<undefined>,<undefined>,-0.19598,<undefined>,-0.10759,-0.085861
D95,devprop,F05,famous,A,49,1649,TRUE,s014,<undefined>,<undefined>,-0.087925,<undefined>,-0.05756,-0.040698,<undefined>,<undefined>,0.055853,<undefined>,<undefined>,-0.20388,-0.10759,<undefined>,0.19318
D96,devprop,F05,famous,A,112,2347,TRUE,s015,<undefined>,<undefined>,-0.12755,<undefined>,-0.25518,0.017613,<undefined>,<undefined>,-0.08311,<undefined>,<undefined>,-0.13374,-0.085861,0.19318,<undefined>
D06,devprop,F05,famous,B,88,3489,FALSE,s001,<undefined>,<undefined>,<undefined>,<undefined>,<undefined>,<undefined>,<undefined>,<undefined>,<undefined>,<undefined>,<undefined>,<undefined>,<undefined>,<undefined>,<undefined>
D08,devprop,F05,famous,B,9,6943,FALSE,s002,<undefined>,<undefined>,<undefined>,<undefined>,<undefined>,<undefined>,<undefined>,<undefined>,<undefined>,<undefined>,<undefined>,<undefined>,<undefined>,<undefined>,<undefined>
D13,devprop,F05,famous,B,99,2152,TRUE,s003,<undefined>,<undefined>,<undefined>,<undefined>,-0.078947,-0.2034,<undefined>,<undefined>,-0.42105,<undefined>,-0.0018702,<undefined>,0.10752,0.062476,-0.15357
D14,devprop,F05,famous,B,66,1713,FALSE,s004,<undefined>,<undefined>,<undefined>,<undefined>,<undefined>,<undefined>,<undefined>,<undefined>,<undefined>,<undefined>,<undefined>,<undefined>,<undefined>,<undefined>,<undefined>
D15,devprop,F05,famous,B,93,1489,TRUE,s005,<undefined>,<undefined>,-0.078947,<undefined>,<undefined>,-0.17987,<undefined>,<undefined>,0.038462,<undefined>,0.25,<undefined>,0.071429,-0.029412,-0.14286
D16,devprop,F05,famous,B,147,4555,TRUE,s006,<undefined>,<undefined>,-0.2034,<undefined>,-0.17987,<undefined>,<undefined>,<undefined>,-0.29545,<undefined>,-0.125,<undefined>,-0.096591,0.038158,0.0022842
D17,devprop,F05,famous,B,109,3984,FALSE,s007,<undefined>,<undefined>,<undefined>,<undefined>,<undefined>,<undefined>,<undefined>,<undefined>,<undefined>,<undefined>,<undefined>,<undefined>,<undefined>,<undefined>,<undefined>
D18,devprop,F05,famous,B,101,2460,FALSE,s008,<undefined>,<undefined>,<undefined>,<undefined>,<undefined>,<undefined>,<undefined>,<undefined>,<undefined>,<undefined>,<undefined>,<undefined>,<undefined>,<undefined>,<undefined>
D90,devprop,F05,famous,B,101,813,TRUE,s009,<undefined>,<undefined>,-0.42105,<undefined>,0.038462,-0.29545,<undefined>,<undefined>,<undefined>,<undefined>,-0.25,<undefined>,-0.12857,-0.34314,-0.30952
D91,devprop,F05,famous,B,105,3051,FALSE,s010,<undefined>,<undefined>,<undefined>,<undefined>,<undefined>,<undefined>,<undefined>,<undefined>,<undefined>,<undefined>,<undefined>,<undefined>,<undefined>,<undefined>,<undefined>
D92,devprop,F05,famous,B,74,1608,TRUE,s011,<undefined>,<undefined>,-0.0018702,<undefined>,0.25,-0.125,<undefined>,<undefined>,-0.25,<undefined>,<undefined>,<undefined>,0.16204,0.068627,-0.15272
D93,devprop,F05,famous,B,106,1119,FALSE,s012,<undefined>,<undefined>,<undefined>,<undefined>,<undefined>,<undefined>,<undefined>,<undefined>,<undefined>,<undefined>,<undefined>,<undefined>,<undefined>,<undefined>,<undefined>
D94,devprop,F05,famous,B,24,1940,TRUE,s013,<undefined>,<undefined>,0.10752,<undefined>,0.071429,-0.096591,<undefined>,<undefined>,-0.12857,<undefined>,0.16204,<undefined>,<undefined>,-0.11765,-0.10697
D95,devprop,F05,famous,B,23,2589,TRUE,s014,<undefined>,<undefined>,0.062476,<undefined>,-0.029412,0.038158,<undefined>,<undefined>,-0.34314,<undefined>,0.068627,<undefined>,-0.11765,<undefined>,-0.1119
D96,devprop,F05,famous,B,110,4438,TRUE,s015,<undefined>,<undefined>,-0.15357,<undefined>,-0.14286,0.0022842,<undefined>,<undefined>,-0.30952,<undefined>,-0.15272,<undefined>,-0.10697,-0.1119,<undefined>
D06,devprop,F05,famous,C,28,2852,FALSE,s001,<undefined>,<undefined>,<undefined>,<undefined>,<undefined>,<undefined>,<undefined>,<undefined>,<undefined>,<undefined>,<undefined>,<undefined>,<undefined>,<undefined>,<undefined>
D08,devprop,F05,famous,C,55,3320,FALSE,s002,<undefined>,<undefined>,<undefined>,<undefined>,<undefined>,<undefined>,<undefined>,<undefined>,<undefined>,<undefined>,<undefined>,<undefined>,<undefined>,<undefined>,<undefined>
D13,devprop,F05,famous,C,144,2067,TRUE,s003,<undefined>,<undefined>,<undefined>,<undefined>,<undefined>,<undefined>,<undefined>,<undefined>,<undefined>,<undefined>,<undefined>,<undefined>,<undefined>,0.015228,<undefined>
D14,devprop,F05,famous,C,138,958,FALSE,s004,<undefined>,<undefined>,<undefined>,<undefined>,<undefined>,<undefined>,<undefined>,<undefined>,<undefined>,<undefined>,<undefined>,<undefined>,<undefined>,<undefined>,<undefined>
D15,devprop,F05,famous,C,159,1694,FALSE,s005,<undefined>,<undefined>,<undefined>,<undefined>,<undefined>,<undefined>,<undefined>,<undefined>,<undefined>,<undefined>,<undefined>,<undefined>,<undefined>,<undefined>,<undefined>
D16,devprop,F05,famous,C,115,5851,FALSE,s006,<undefined>,<undefined>,<undefined>,<undefined>,<undefined>,<undefined>,<undefined>,<undefined>,<undefined>,<undefined>,<undefined>,<undefined>,<undefined>,<undefined>,<undefined>
D17,devprop,F05,famous,C,145,3280,FALSE,s007,<undefined>,<undefined>,<undefined>,<undefined>,<undefined>,<undefined>,<undefined>,<undefined>,<undefined>,<undefined>,<undefined>,<undefined>,<undefined>,<undefined>,<undefined>
D18,devprop,F05,famous,C,153,2146,FALSE,s008,<undefined>,<undefined>,<undefined>,<undefined>,<undefined>,<undefined>,<undefined>,<undefined>,<undefined>,<undefined>,<undefined>,<undefined>,<undefined>,<undefined>,<undefined>
D90,devprop,F05,famous,C,99,2178,FALSE,s009,<undefined>,<undefined>,<undefined>,<undefined>,<undefined>,<undefined>,<undefined>,<undefined>,<undefined>,<undefined>,<undefined>,<undefined>,<undefined>,<undefined>,<undefined>
D91,devprop,F05,famous,C,115,2913,FALSE,s010,<undefined>,<undefined>,<undefined>,<undefined>,<undefined>,<undefined>,<undefined>,<undefined>,<undefined>,<undefined>,<undefined>,<undefined>,<undefined>,<undefined>,<undefined>
D92,devprop,F05,famous,C,92,2233,FALSE,s011,<undefined>,<undefined>,<undefined>,<undefined>,<undefined>,<undefined>,<undefined>,<undefined>,<undefined>,<undefined>,<undefined>,<undefined>,<undefined>,<undefined>,<undefined>
D93,devprop,F05,famous,C,124,1738,FALSE,s012,<undefined>,<undefined>,<undefined>,<undefined>,<undefined>,<undefined>,<undefined>,<undefined>,<undefined>,<undefined>,<undefined>,<undefined>,<undefined>,<undefined>,<undefined>
D94,devprop,F05,famous,C,82,2449,FALSE,s013,<undefined>,<undefined>,<undefined>,<undefined>,<undefined>,<undefined>,<undefined>,<undefined>,<undefined>,<undefined>,<undefined>,<undefined>,<undefined>,<undefined>,<undefined>
D95,devprop,F05,famous,C,43,3017,TRUE,s014,<undefined>,<undefined>,0.015228,<undefined>,<undefined>,<undefined>,<undefined>,<undefined>,<undefined>,<undefined>,<undefined>,<undefined>,<undefined>,<undefined>,<undefined>
D96,devprop,F05,famous,C,7,4337,FALSE,s015,<undefined>,<undefined>,<undefined>,<undefined>,<undefined>,<undefined>,<undefined>,<undefined>,<undefined>,<undefined>,<undefined>,<undefined>,<undefined>,<undefined>,<undefined>
D06,devprop,F05,famous,D,2,2440,FALSE,s001,<undefined>,<undefined>,<undefined>,<undefined>,<undefined>,<undefined>,<undefined>,<undefined>,<undefined>,<undefined>,<undefined>,<undefined>,<undefined>,<undefined>,<undefined>
D08,devprop,F05,famous,D,51,4585,FALSE,s002,<undefined>,<undefined>,<undefined>,<undefined>,<undefined>,<undefined>,<undefined>,<undefined>,<undefined>,<undefined>,<undefined>,<undefined>,<undefined>,<undefined>,<undefined>
D13,devprop,F05,famous,D,56,3919,TRUE,s003,<undefined>,<undefined>,<undefined>,<undefined>,-0.11688,0.051546,<undefined>,<undefined>,<undefined>,<undefined>,<undefined>,<undefined>,-0.31169,<undefined>,<undefined>
D14,devprop,F05,famous,D,92,2361,FALSE,s004,<undefined>,<undefined>,<undefined>,<undefined>,<undefined>,<undefined>,<undefined>,<undefined>,<undefined>,<undefined>,<undefined>,<undefined>,<undefined>,<undefined>,<undefined>
D15,devprop,F05,famous,D,103,2077,TRUE,s005,<undefined>,<undefined>,-0.11688,<undefined>,<undefined>,-0.055817,<undefined>,<undefined>,<undefined>,<undefined>,<undefined>,<undefined>,-0.18919,<undefined>,<undefined>
D16,devprop,F05,famous,D,44,8148,TRUE,s006,<undefined>,<undefined>,0.051546,<undefined>,-0.055817,<undefined>,<undefined>,<undefined>,<undefined>,<undefined>,<undefined>,<undefined>,-0.28866,<undefined>,<undefined>
D17,devprop,F05,famous,D,137,3255,FALSE,s007,<undefined>,<undefined>,<undefined>,<undefined>,<undefined>,<undefined>,<undefined>,<undefined>,<undefined>,<undefined>,<undefined>,<undefined>,<undefined>,<undefined>,<undefined>
D18,devprop,F05,famous,D,34,2297,FALSE,s008,<undefined>,<undefined>,<undefined>,<undefined>,<undefined>,<undefined>,<undefined>,<undefined>,<undefined>,<undefined>,<undefined>,<undefined>,<undefined>,<undefined>,<undefined>
D90,devprop,F05,famous,D,31,1178,FALSE,s009,<undefined>,<undefined>,<undefined>,<undefined>,<undefined>,<undefined>,<undefined>,<undefined>,<undefined>,<undefined>,<undefined>,<undefined>,<undefined>,<undefined>,<undefined>
D91,devprop,F05,famous,D,103,2867,FALSE,s010,<undefined>,<undefined>,<undefined>,<undefined>,<undefined>,<undefined>,<undefined>,<undefined>,<undefined>,<undefined>,<undefined>,<undefined>,<undefined>,<undefined>,<undefined>
D92,devprop,F05,famous,D,39,4144,FALSE,s011,<undefined>,<undefined>,<undefined>,<undefined>,<undefined>,<undefined>,<undefined>,<undefined>,<undefined>,<undefined>,<undefined>,<undefined>,<undefined>,<undefined>,<undefined>
D93,devprop,F05,famous,D,66,965,FALSE,s012,<undefined>,<undefined>,<undefined>,<undefined>,<undefined>,<undefined>,<undefined>,<undefined>,<undefined>,<undefined>,<undefined>,<undefined>,<undefined>,<undefined>,<undefined>
D94,devprop,F05,famous,D,34,716,TRUE,s013,<undefined>,<undefined>,-0.31169,<undefined>,-0.18919,-0.28866,<undefined>,<undefined>,<undefined>,<undefined>,<undefined>,<undefined>,<undefined>,<undefined>,<undefined>
D95,devprop,F05,famous,D,12,2181,FALSE,s014,<undefined>,<undefined>,<undefined>,<undefined>,<undefined>,<undefined>,<undefined>,<undefined>,<undefined>,<undefined>,<undefined>,<undefined>,<undefined>,<undefined>,<undefined>
D96,devprop,F05,famous,D,41,3241,FALSE,s015,<undefined>,<undefined>,<undefined>,<undefined>,<undefined>,<undefined>,<undefined>,<undefined>,<undefined>,<undefined>,<undefined>,<undefined>,<undefined>,<undefined>,<undefined>
D06,devprop,F06,famous,A,154,3991,FALSE,s001,<undefined>,<undefined>,<undefined>,<undefined>,<undefined>,<undefined>,<undefined>,<undefined>,<undefined>,<undefined>,<undefined>,<undefined>,<undefined>,<undefined>,<undefined>
D08,devprop,F06,famous,A,115,1508,TRUE,s002,<undefined>,<undefined>,-0.48057,<undefined>,0.24242,0.33929,<undefined>,-0.14789,0.30357,<undefined>,0.31583,-0.45098,-0.26987,0.50306,0.018383
D13,devprop,F06,famous,A,85,1323,TRUE,s003,<undefined>,-0.48057,<undefined>,<undefined>,-0.057138,-0.25531,<undefined>,-0.29798,-0.6589,<undefined>,-0.13746,0.2643,-0.069036,-0.3661,-0.041195
D14,devprop,F06,famous,A,76,1180,FALSE,s004,<undefined>,<undefined>,<undefined>,<undefined>,<undefined>,<undefined>,<undefined>,<undefined>,<undefined>,<undefined>,<undefined>,<undefined>,<undefined>,<undefined>,<undefined>
D15,devprop,F06,famous,A,138,1788,TRUE,s005,<undefined>,0.24242,-0.057138,<undefined>,<undefined>,0.015625,<undefined>,-0.094967,0.13304,<undefined>,-0.078125,-0.27811,-0.0075825,0.39062,-0.20267
D16,devprop,F06,famous,A,51,1165,TRUE,s006,<undefined>,0.33929,-0.25531,<undefined>,0.015625,<undefined>,<undefined>,-0.33803,0.095238,<undefined>,0.46464,-0.37547,0.028595,0.25027,-0.047228
D17,devprop,F06,famous,A,48,2869,FALSE,s007,<undefined>,<undefined>,<undefined>,<undefined>,<undefined>,<undefined>,<undefined>,<undefined>,<undefined>,<undefined>,<undefined>,<undefined>,<undefined>,<undefined>,<undefined>
D18,devprop,F06,famous,A,20,3515,TRUE,s008,<undefined>,-0.14789,-0.29798,<undefined>,-0.094967,-0.33803,<undefined>,<undefined>,-0.20302,<undefined>,-0.32394,-0.16197,-0.4835,-0.084507,-0.34849
D90,devprop,F06,famous,A,93,1190,TRUE,s009,<undefined>,0.30357,-0.6589,<undefined>,0.13304,0.095238,<undefined>,-0.20302,<undefined>,<undefined>,0.19048,-0.56256,-0.38842,0.1762,-0.22747
D91,devprop,F06,famous,A,82,3943,FALSE,s010,<undefined>,<undefined>,<undefined>,<undefined>,<undefined>,<undefined>,<undefined>,<undefined>,<undefined>,<undefined>,<undefined>,<undefined>,<undefined>,<undefined>,<undefined>
D92,devprop,F06,famous,A,120,1089,TRUE,s011,<undefined>,0.31583,-0.13746,<undefined>,-0.078125,0.46464,<undefined>,-0.32394,0.19048,<undefined>,<undefined>,-0.35333,-0.19169,0.25926,0.14121
D93,devprop,F06,famous,A,157,1087,TRUE,s012,<undefined>,-0.45098,0.2643,<undefined>,-0.27811,-0.37547,<undefined>,-0.16197,-0.56256,<undefined>,-0.35333,<undefined>,-0.85355,-0.18727,-0.29723
D94,devprop,F06,famous,A,142,754,TRUE,s013,<undefined>,-0.26987,-0.069036,<undefined>,-0.0075825,0.028595,<undefined>,-0.4835,-0.38842,<undefined>,-0.19169,-0.85355,<undefined>,-0.23965,-0.18571
D95,devprop,F06,famous,A,31,1339,TRUE,s014,<undefined>,0.50306,-0.3661,<undefined>,0.39062,0.25027,<undefined>,-0.084507,0.1762,<undefined>,0.25926,-0.18727,-0.23965,<undefined>,-0.070897
D96,devprop,F06,famous,A,146,1466,TRUE,s015,<undefined>,0.018383,-0.041195,<undefined>,-0.20267,-0.047228,<undefined>,-0.34849,-0.22747,<undefined>,0.14121,-0.29723,-0.18571,-0.070897,<undefined>
D06,devprop,F06,famous,B,142,3324,FALSE,s001,<undefined>,<undefined>,<undefined>,<undefined>,<undefined>,<undefined>,<undefined>,<undefined>,<undefined>,<undefined>,<undefined>,<undefined>,<undefined>,<undefined>,<undefined>
D08,devprop,F06,famous,B,8,2667,TRUE,s002,<undefined>,<undefined>,-0.36842,<undefined>,0.40671,-0.15625,0.092123,-0.3174,0.10938,<undefined>,-0.22051,0.080806,-0.3799,0,-0.023449
D13,devprop,F06,famous,B,33,1891,TRUE,s003,<undefined>,-0.36842,<undefined>,<undefined>,-0.40789,-0.21053,-0.055908,0.039474,-0.64022,<undefined>,-0.2936,-0.30676,0.013158,-0.10526,-0.27206
D14,devprop,F06,famous,B,88,1951,FALSE,s004,<undefined>,<undefined>,<undefined>,<undefined>,<undefined>,<undefined>,<undefined>,<undefined>,<undefined>,<undefined>,<undefined>,<undefined>,<undefined>,<undefined>,<undefined>
D15,devprop,F06,famous,B,148,1429,TRUE,s005,<undefined>,0.40671,-0.40789,<undefined>,<undefined>,0.18,-0.044329,-0.026274,0.31034,<undefined>,0.08402,-0.29196,-0.47314,-0.1,-0.039655
D16,devprop,F06,famous,B,46,851,TRUE,s006,<undefined>,-0.15625,-0.21053,<undefined>,0.18,<undefined>,-0.22414,0.28261,-0.12069,<undefined>,0.23684,-0.24918,-0.33709,0.33395,-0.18657
D17,devprop,F06,famous,B,62,3055,TRUE,s007,<undefined>,0.092123,-0.055908,<undefined>,-0.044329,-0.22414,<undefined>,-0.094828,-0.20542,<undefined>,-0.23694,-0.17241,-0.16379,-0.18966,0.065043
D18,devprop,F06,famous,B,148,1273,TRUE,s008,<undefined>,-0.3174,0.039474,<undefined>,-0.026274,0.28261,-0.094828,<undefined>,-0.29851,<undefined>,-0.13043,-0.46707,-0.086957,0.021739,-0.21364
D90,devprop,F06,famous,B,66,1581,TRUE,s009,<undefined>,0.10938,-0.64022,<undefined>,0.31034,-0.12069,-0.20542,-0.29851,<undefined>,<undefined>,-0.18915,-0.47042,-0.62314,-0.36207,-0.044776
D91,devprop,F06,famous,B,58,3831,FALSE,s010,<undefined>,<undefined>,<undefined>,<undefined>,<undefined>,<undefined>,<undefined>,<undefined>,<undefined>,<undefined>,<undefined>,<undefined>,<undefined>,<undefined>,<undefined>
D92,devprop,F06,famous,B,31,1118,TRUE,s011,<undefined>,-0.22051,-0.2936,<undefined>,0.08402,0.23684,-0.23694,-0.13043,-0.18915,<undefined>,<undefined>,0.28573,-0.46465,0.0045151,-0.14925
D93,devprop,F06,famous,B,35,1184,TRUE,s012,<undefined>,0.080806,-0.30676,<undefined>,-0.29196,-0.24918,-0.17241,-0.46707,-0.47042,<undefined>,0.28573,<undefined>,-0.41667,0.16667,-0.15672
D94,devprop,F06,famous,B,123,727,TRUE,s013,<undefined>,-0.3799,0.013158,<undefined>,-0.47314,-0.33709,-0.16379,-0.086957,-0.62314,<undefined>,-0.46465,-0.41667,<undefined>,0.13664,-0.39274
D95,devprop,F06,famous,B,135,849,TRUE,s014,<undefined>,0,-0.10526,<undefined>,-0.1,0.33395,-0.18966,0.021739,-0.36207,<undefined>,0.0045151,0.16667,0.13664,<undefined>,-0.19275
D96,devprop,F06,famous,B,17,3506,TRUE,s015,<undefined>,-0.023449,-0.27206,<undefined>,-0.039655,-0.18657,0.065043,-0.21364,-0.044776,<undefined>,-0.14925,-0.15672,-0.39274,-0.19275,<undefined>
D06,devprop,F06,famous,C,33,3847,TRUE,s001,<undefined>,0.13364,-0.08432,<undefined>,-0.10754,-0.125,<undefined>,0.12977,-0.3125,-0.013889,-0.057734,-0.34028,-0.36806,-0.19444,0.073019
D08,devprop,F06,famous,C,25,4832,TRUE,s002,0.13364,<undefined>,-0.29907,<undefined>,-0.14239,-0.24194,<undefined>,0.17742,-0.30108,0.093243,-0.18725,-0.37972,-0.22581,-0.23118,0.34148
D13,devprop,F06,famous,C,21,1585,TRUE,s003,-0.08432,-0.29907,<undefined>,<undefined>,-0.038562,-0.0023689,<undefined>,-0.29255,-0.35,-0.36345,0.045262,-0.25809,-0.61667,-0.29665,-0.34118
D14,devprop,F06,famous,C,36,1841,FALSE,s004,<undefined>,<undefined>,<undefined>,<undefined>,<undefined>,<undefined>,<undefined>,<undefined>,<undefined>,<undefined>,<undefined>,<undefined>,<undefined>,<undefined>,<undefined>
D15,devprop,F06,famous,C,115,1597,TRUE,s005,-0.10754,-0.14239,-0.038562,<undefined>,<undefined>,0.07784,<undefined>,-0.019706,0.2069,-0.028846,0.44828,-0.26056,0.13793,-0.054175,-0.032502
D16,devprop,F06,famous,C,98,1083,TRUE,s006,-0.125,-0.24194,-0.0023689,<undefined>,0.07784,<undefined>,<undefined>,-0.048284,0.19444,-0.16648,0.35373,-0.24442,-0.23684,0.29684,-0.24265
D17,devprop,F06,famous,C,130,3034,FALSE,s007,<undefined>,<undefined>,<undefined>,<undefined>,<undefined>,<undefined>,<undefined>,<undefined>,<undefined>,<undefined>,<undefined>,<undefined>,<undefined>,<undefined>,<undefined>
D18,devprop,F06,famous,C,9,2464,TRUE,s008,0.12977,0.17742,-0.29255,<undefined>,-0.019706,-0.048284,<undefined>,<undefined>,-0.19,0.096154,-0.031421,-0.23485,-0.19,-0.06,0.2056
D90,devprop,F06,famous,C,116,870,TRUE,s009,-0.3125,-0.30108,-0.35,<undefined>,0.2069,0.19444,<undefined>,-0.19,<undefined>,-0.18269,0.04,-0.59242,0.15789,-0.018246,-0.26087
D91,devprop,F06,famous,C,149,2556,TRUE,s010,-0.013889,0.093243,-0.36345,<undefined>,-0.028846,-0.16648,<undefined>,0.096154,-0.18269,<undefined>,-0.094504,-0.40026,-0.14423,0,0.16667
D92,devprop,F06,famous,C,91,1366,TRUE,s011,-0.057734,-0.18725,0.045262,<undefined>,0.44828,0.35373,<undefined>,-0.031421,0.04,-0.094504,<undefined>,-0.052548,-0.36,0.25029,-0.086957
D93,devprop,F06,famous,C,29,957,TRUE,s012,-0.34028,-0.37972,-0.25809,<undefined>,-0.26056,-0.24442,<undefined>,-0.23485,-0.59242,-0.40026,-0.052548,<undefined>,-0.69698,-0.24442,-0.32587
D94,devprop,F06,famous,C,9,916,TRUE,s013,-0.36806,-0.22581,-0.61667,<undefined>,0.13793,-0.23684,<undefined>,-0.19,0.15789,-0.14423,-0.36,-0.69698,<undefined>,-0.13532,-0.21739
D95,devprop,F06,famous,C,51,898,TRUE,s014,-0.19444,-0.23118,-0.29665,<undefined>,-0.054175,0.29684,<undefined>,-0.06,-0.018246,0,0.25029,-0.24442,-0.13532,<undefined>,-0.18116
D96,devprop,F06,famous,C,19,3589,TRUE,s015,0.073019,0.34148,-0.34118,<undefined>,-0.032502,-0.24265,<undefined>,0.2056,-0.26087,0.16667,-0.086957,-0.32587,-0.21739,-0.18116,<undefined>
D06,devprop,F06,famous,D,65,4104,FALSE,s001,<undefined>,<undefined>,<undefined>,<undefined>,<undefined>,<undefined>,<undefined>,<undefined>,<undefined>,<undefined>,<undefined>,<undefined>,<undefined>,<undefined>,<undefined>
D08,devprop,F06,famous,D,7,14024,FALSE,s002,<undefined>,<undefined>,<undefined>,<undefined>,<undefined>,<undefined>,<undefined>,<undefined>,<undefined>,<undefined>,<undefined>,<undefined>,<undefined>,<undefined>,<undefined>
D13,devprop,F06,famous,D,141,850,TRUE,s003,<undefined>,<undefined>,<undefined>,<undefined>,<undefined>,-0.37278,<undefined>,-0.30369,-0.61765,<undefined>,-0.22513,-0.060383,0,0.10526,-0.31107
D14,devprop,F06,famous,D,154,1122,FALSE,s004,<undefined>,<undefined>,<undefined>,<undefined>,<undefined>,<undefined>,<undefined>,<undefined>,<undefined>,<undefined>,<undefined>,<undefined>,<undefined>,<undefined>,<undefined>
D15,devprop,F06,famous,D,136,2091,FALSE,s005,<undefined>,<undefined>,<undefined>,<undefined>,<undefined>,<undefined>,<undefined>,<undefined>,<undefined>,<undefined>,<undefined>,<undefined>,<undefined>,<undefined>,<undefined>
D16,devprop,F06,famous,D,139,1229,TRUE,s006,<undefined>,<undefined>,-0.37278,<undefined>,<undefined>,<undefined>,<undefined>,-0.083333,0.071429,<undefined>,-0.23148,-0.57141,-0.047619,-0.095238,-0.11545
D17,devprop,F06,famous,D,158,1888,FALSE,s007,<undefined>,<undefined>,<undefined>,<undefined>,<undefined>,<undefined>,<undefined>,<undefined>,<undefined>,<undefined>,<undefined>,<undefined>,<undefined>,<undefined>,<undefined>
D18,devprop,F06,famous,D,89,2697,TRUE,s008,<undefined>,<undefined>,-0.30369,<undefined>,<undefined>,-0.083333,<undefined>,<undefined>,-0.2037,<undefined>,0.10848,-0.31745,-0.26216,-0.12804,0.23148
D90,devprop,F06,famous,D,124,907,TRUE,s009,<undefined>,<undefined>,-0.61765,<undefined>,<undefined>,0.071429,<undefined>,-0.2037,<undefined>,<undefined>,-0.35185,-0.65842,-0.09375,-0.28947,-0.33673
D91,devprop,F06,famous,D,32,2186,FALSE,s010,<undefined>,<undefined>,<undefined>,<undefined>,<undefined>,<undefined>,<undefined>,<undefined>,<undefined>,<undefined>,<undefined>,<undefined>,<undefined>,<undefined>,<undefined>
D92,devprop,F06,famous,D,25,3008,TRUE,s011,<undefined>,<undefined>,-0.22513,<undefined>,<undefined>,-0.23148,<undefined>,0.10848,-0.35185,<undefined>,<undefined>,-0.037037,-0.37328,-0.12804,-0.035448
D93,devprop,F06,famous,D,23,1255,TRUE,s012,<undefined>,<undefined>,-0.060383,<undefined>,<undefined>,-0.57141,<undefined>,-0.31745,-0.65842,<undefined>,-0.037037,<undefined>,-0.42725,-0.37077,-0.31222
D94,devprop,F06,famous,D,33,853,TRUE,s013,<undefined>,<undefined>,0,<undefined>,<undefined>,-0.047619,<undefined>,-0.26216,-0.09375,<undefined>,-0.37328,-0.42725,<undefined>,0.083462,-0.26531
D95,devprop,F06,famous,D,34,1060,TRUE,s014,<undefined>,<undefined>,0.10526,<undefined>,<undefined>,-0.095238,<undefined>,-0.12804,-0.28947,<undefined>,-0.12804,-0.37077,0.083462,<undefined>,-0.020408
D96,devprop,F06,famous,D,100,2716,TRUE,s015,<undefined>,<undefined>,-0.31107,<undefined>,<undefined>,-0.11545,<undefined>,0.23148,-0.33673,<undefined>,-0.035448,-0.31222,-0.26531,-0.020408,<undefined>
D06,devprop,F07,famous,A,91,2605,FALSE,s001,<undefined>,<undefined>,<undefined>,<undefined>,<undefined>,<undefined>,<undefined>,<undefined>,<undefined>,<undefined>,<undefined>,<undefined>,<undefined>,<undefined>,<undefined>
D08,devprop,F07,famous,A,123,2314,TRUE,s002,<undefined>,<undefined>,0.034091,<undefined>,<undefined>,0.09564,0.23134,-0.13364,-0.18182,-0.069462,-0.11364,-0.056818,-0.030192,-0.20455,<undefined>
D13,devprop,F07,famous,A,139,947,TRUE,s003,<undefined>,0.034091,<undefined>,<undefined>,<undefined>,-0.26316,-0.1371,-0.36707,-0.44118,-0.36976,-0.20588,-0.10526,-0.068966,0.13889,<undefined>
D14,devprop,F07,famous,A,59,2088,FALSE,s004,<undefined>,<undefined>,<undefined>,<undefined>,<undefined>,<undefined>,<undefined>,<undefined>,<undefined>,<undefined>,<undefined>,<undefined>,<undefined>,<undefined>,<undefined>
D15,devprop,F07,famous,A,106,1133,FALSE,s005,<undefined>,<undefined>,<undefined>,<undefined>,<undefined>,<undefined>,<undefined>,<undefined>,<undefined>,<undefined>,<undefined>,<undefined>,<undefined>,<undefined>,<undefined>
D16,devprop,F07,famous,A,95,6561,TRUE,s006,<undefined>,0.09564,-0.26316,<undefined>,<undefined>,<undefined>,0.12902,0.030831,-0.28947,0.058798,-0.35263,-0.27368,-0.042105,-0.24737,<undefined>
D17,devprop,F07,famous,A,59,3210,TRUE,s007,<undefined>,0.23134,-0.1371,<undefined>,<undefined>,0.12902,<undefined>,0.054159,-0.16129,0.036884,-0.23249,-0.08871,0.15323,-0.080645,<undefined>
D18,devprop,F07,famous,A,99,2936,TRUE,s008,<undefined>,-0.13364,-0.36707,<undefined>,<undefined>,0.030831,0.054159,<undefined>,-0.17797,0.22034,-0.29661,-0.45131,-0.047939,-0.28668,<undefined>
D90,devprop,F07,famous,A,85,825,TRUE,s009,<undefined>,-0.18182,-0.44118,<undefined>,<undefined>,-0.28947,-0.16129,-0.17797,<undefined>,-0.077405,0.35714,-0.53457,0.086207,-0.22222,<undefined>
D91,devprop,F07,famous,A,141,2111,TRUE,s010,<undefined>,-0.069462,-0.36976,<undefined>,<undefined>,0.058798,0.036884,0.22034,-0.077405,<undefined>,-0.22093,-0.35613,0.058482,-0.28272,<undefined>
D92,devprop,F07,famous,A,112,771,TRUE,s011,<undefined>,-0.11364,-0.20588,<undefined>,<undefined>,-0.35263,-0.23249,-0.29661,0.35714,-0.22093,<undefined>,-0.41654,-0.066007,-0.44444,<undefined>
D93,devprop,F07,famous,A,119,1134,TRUE,s012,<undefined>,-0.056818,-0.10526,<undefined>,<undefined>,-0.27368,-0.08871,-0.45131,-0.53457,-0.35613,-0.41654,<undefined>,-0.3128,-0.060887,<undefined>
D94,devprop,F07,famous,A,136,1424,TRUE,s013,<undefined>,-0.030192,-0.068966,<undefined>,<undefined>,-0.042105,0.15323,-0.047939,0.086207,0.058482,-0.066007,-0.3128,<undefined>,0.25862,<undefined>
D95,devprop,F07,famous,A,125,852,TRUE,s014,<undefined>,-0.20455,0.13889,<undefined>,<undefined>,-0.24737,-0.080645,-0.28668,-0.22222,-0.28272,-0.44444,-0.060887,0.25862,<undefined>,<undefined>
D96,devprop,F07,famous,A,115,4440,FALSE,s015,<undefined>,<undefined>,<undefined>,<undefined>,<undefined>,<undefined>,<undefined>,<undefined>,<undefined>,<undefined>,<undefined>,<undefined>,<undefined>,<undefined>,<undefined>
D06,devprop,F07,famous,B,90,2591,FALSE,s001,<undefined>,<undefined>,<undefined>,<undefined>,<undefined>,<undefined>,<undefined>,<undefined>,<undefined>,<undefined>,<undefined>,<undefined>,<undefined>,<undefined>,<undefined>
D08,devprop,F07,famous,B,98,1627,TRUE,s002,<undefined>,<undefined>,-0.10049,<undefined>,<undefined>,-0.11842,0.25018,0.13636,-0.30357,0,-0.16071,-0.050508,-0.094888,-0.14286,<undefined>
D13,devprop,F07,famous,B,100,1060,TRUE,s003,<undefined>,-0.10049,<undefined>,<undefined>,<undefined>,-0.22256,-0.083274,-0.20811,-0.35294,-0.31962,-0.27811,0.12269,0.029412,0.20398,<undefined>
D14,devprop,F07,famous,B,41,2669,FALSE,s004,<undefined>,<undefined>,<undefined>,<undefined>,<undefined>,<undefined>,<undefined>,<undefined>,<undefined>,<undefined>,<undefined>,<undefined>,<undefined>,<undefined>,<undefined>
D15,devprop,F07,famous,B,38,1173,FALSE,s005,<undefined>,<undefined>,<undefined>,<undefined>,<undefined>,<undefined>,<undefined>,<undefined>,<undefined>,<undefined>,<undefined>,<undefined>,<undefined>,<undefined>,<undefined>
D16,devprop,F07,famous,B,113,3788,TRUE,s006,<undefined>,-0.11842,-0.22256,<undefined>,<undefined>,<undefined>,0.063726,0.057147,-0.30921,-0.039474,-0.29605,-0.23684,-0.18421,-0.15789,<undefined>
D17,devprop,F07,famous,B,68,2286,TRUE,s007,<undefined>,0.25018,-0.083274,<undefined>,<undefined>,0.063726,<undefined>,0.26136,-0.16655,-0.018113,-0.19512,0.012195,-0.15017,-0.085366,<undefined>
D18,devprop,F07,famous,B,65,2152,TRUE,s008,<undefined>,0.13636,-0.20811,<undefined>,<undefined>,0.057147,0.26136,<undefined>,-0.42045,0.068182,-0.14773,-0.022727,-0.31818,-0.08701,<undefined>
D90,devprop,F07,famous,B,71,1005,TRUE,s009,<undefined>,-0.30357,-0.35294,<undefined>,<undefined>,-0.30921,-0.16655,-0.42045,<undefined>,-0.17188,0.058824,-0.55882,-0.14706,-0.36111,<undefined>
D91,devprop,F07,famous,B,108,1599,TRUE,s010,<undefined>,0,-0.31962,<undefined>,<undefined>,-0.039474,-0.018113,0.068182,-0.17188,<undefined>,0.10938,-0.46247,-0.083027,-0.23077,<undefined>
D92,devprop,F07,famous,B,104,761,TRUE,s011,<undefined>,-0.16071,-0.27811,<undefined>,<undefined>,-0.29605,-0.19512,-0.14773,0.058824,0.10938,<undefined>,-0.58771,-0.15625,-0.17538,<undefined>
D93,devprop,F07,famous,B,158,911,TRUE,s012,<undefined>,-0.050508,0.12269,<undefined>,<undefined>,-0.23684,0.012195,-0.022727,-0.55882,-0.46247,-0.58771,<undefined>,-0.6875,0.16272,<undefined>
D94,devprop,F07,famous,B,42,774,TRUE,s013,<undefined>,-0.094888,0.029412,<undefined>,<undefined>,-0.18421,-0.15017,-0.31818,-0.14706,-0.083027,-0.15625,-0.6875,<undefined>,-0.27778,<undefined>
D95,devprop,F07,famous,B,113,852,TRUE,s014,<undefined>,-0.14286,0.20398,<undefined>,<undefined>,-0.15789,-0.085366,-0.08701,-0.36111,-0.23077,-0.17538,0.16272,-0.27778,<undefined>,<undefined>
D96,devprop,F07,famous,B,44,4915,FALSE,s015,<undefined>,<undefined>,<undefined>,<undefined>,<undefined>,<undefined>,<undefined>,<undefined>,<undefined>,<undefined>,<undefined>,<undefined>,<undefined>,<undefined>,<undefined>
D06,devprop,F07,famous,C,80,6117,FALSE,s001,<undefined>,<undefined>,<undefined>,<undefined>,<undefined>,<undefined>,<undefined>,<undefined>,<undefined>,<undefined>,<undefined>,<undefined>,<undefined>,<undefined>,<undefined>
D08,devprop,F07,famous,C,58,3286,TRUE,s002,<undefined>,<undefined>,-0.22388,<undefined>,<undefined>,-0.005753,-0.098882,0.4154,-0.19531,-0.046875,-0.03125,-0.30469,-0.19129,-0.22388,<undefined>
D13,devprop,F07,famous,C,149,812,TRUE,s003,<undefined>,-0.22388,<undefined>,<undefined>,<undefined>,-0.21528,-0.18431,-0.31867,-0.11765,-0.087132,-0.08701,0.27566,-0.26471,-0.051003,<undefined>
D14,devprop,F07,famous,C,146,1499,FALSE,s004,<undefined>,<undefined>,<undefined>,<undefined>,<undefined>,<undefined>,<undefined>,<undefined>,<undefined>,<undefined>,<undefined>,<undefined>,<undefined>,<undefined>,<undefined>
D15,devprop,F07,famous,C,116,1178,FALSE,s005,<undefined>,<undefined>,<undefined>,<undefined>,<undefined>,<undefined>,<undefined>,<undefined>,<undefined>,<undefined>,<undefined>,<undefined>,<undefined>,<undefined>,<undefined>
D16,devprop,F07,famous,C,42,3833,TRUE,s006,<undefined>,-0.005753,-0.21528,<undefined>,<undefined>,<undefined>,0.17164,0.022025,-0.3125,-0.13889,-0.16667,-0.1875,-0.31944,-0.10992,<undefined>
D17,devprop,F07,famous,C,104,3240,TRUE,s007,<undefined>,-0.098882,-0.18431,<undefined>,<undefined>,0.17164,<undefined>,-0.28524,-0.36066,-0.20492,-0.18852,-0.14473,-0.31967,-0.04918,<undefined>
D18,devprop,F07,famous,C,114,2622,TRUE,s008,<undefined>,0.4154,-0.31867,<undefined>,<undefined>,0.022025,-0.28524,<undefined>,-0.21785,0.019231,-0.084889,-0.50575,-0.19697,-0.095871,<undefined>
D90,devprop,F07,famous,C,86,764,TRUE,s009,<undefined>,-0.19531,-0.11765,<undefined>,<undefined>,-0.3125,-0.36066,-0.21785,<undefined>,0.23358,0.25,-0.52941,0.59375,-0.22993,<undefined>
D91,devprop,F07,famous,C,151,998,TRUE,s010,<undefined>,-0.046875,-0.087132,<undefined>,<undefined>,-0.13889,-0.20492,0.019231,0.23358,<undefined>,0.39806,-0.60282,0.28787,0.22246,<undefined>
D92,devprop,F07,famous,C,32,1398,TRUE,s011,<undefined>,-0.03125,-0.08701,<undefined>,<undefined>,-0.16667,-0.18852,-0.084889,0.25,0.39806,<undefined>,-0.20778,0.35261,-0.10584,<undefined>
D93,devprop,F07,famous,C,155,951,TRUE,s012,<undefined>,-0.30469,0.27566,<undefined>,<undefined>,-0.1875,-0.14473,-0.50575,-0.52941,-0.60282,-0.20778,<undefined>,-0.73529,-0.40745,<undefined>
D94,devprop,F07,famous,C,86,798,TRUE,s013,<undefined>,-0.19129,-0.26471,<undefined>,<undefined>,-0.31944,-0.31967,-0.19697,0.59375,0.28787,0.35261,-0.73529,<undefined>,-0.015639,<undefined>
D95,devprop,F07,famous,C,47,1038,TRUE,s014,<undefined>,-0.22388,-0.051003,<undefined>,<undefined>,-0.10992,-0.04918,-0.095871,-0.22993,0.22246,-0.10584,-0.40745,-0.015639,<undefined>,<undefined>
D96,devprop,F07,famous,C,70,2442,FALSE,s015,<undefined>,<undefined>,<undefined>,<undefined>,<undefined>,<undefined>,<undefined>,<undefined>,<undefined>,<undefined>,<undefined>,<undefined>,<undefined>,<undefined>,<undefined>
D06,devprop,F07,famous,D,52,3425,FALSE,s001,<undefined>,<undefined>,<undefined>,<undefined>,<undefined>,<undefined>,<undefined>,<undefined>,<undefined>,<undefined>,<undefined>,<undefined>,<undefined>,<undefined>,<undefined>
D08,devprop,F07,famous,D,72,1908,TRUE,s002,<undefined>,<undefined>,-0.14325,<undefined>,<undefined>,-0.11252,-0.15306,-0.029412,-0.013889,0.29167,0.13889,-0.21984,-0.076184,-0.05079,<undefined>
D13,devprop,F07,famous,D,9,1139,TRUE,s003,<undefined>,-0.14325,<undefined>,<undefined>,<undefined>,-0.20619,-0.1828,-0.10168,-0.086957,-0.21932,-0.18382,0.032929,0.17391,0.080137,<undefined>
D14,devprop,F07,famous,D,113,636,FALSE,s004,<undefined>,<undefined>,<undefined>,<undefined>,<undefined>,<undefined>,<undefined>,<undefined>,<undefined>,<undefined>,<undefined>,<undefined>,<undefined>,<undefined>,<undefined>
D15,devprop,F07,famous,D,153,1263,FALSE,s005,<undefined>,<undefined>,<undefined>,<undefined>,<undefined>,<undefined>,<undefined>,<undefined>,<undefined>,<undefined>,<undefined>,<undefined>,<undefined>,<undefined>,<undefined>
D16,devprop,F07,famous,D,47,6454,TRUE,s006,<undefined>,-0.11252,-0.20619,<undefined>,<undefined>,<undefined>,0.23484,0.11105,-0.30928,-0.092784,-0.28778,-0.23711,-0.3299,-0.30412,<undefined>
D17,devprop,F07,famous,D,5,5051,TRUE,s007,<undefined>,-0.15306,-0.1828,<undefined>,<undefined>,0.23484,<undefined>,0.20511,-0.33163,-0.10714,-0.30612,-0.17857,-0.31122,-0.29592,<undefined>
D18,devprop,F07,famous,D,44,3481,TRUE,s008,<undefined>,-0.029412,-0.10168,<undefined>,<undefined>,0.11105,0.20511,<undefined>,-0.27206,0.095588,-0.27941,-0.13971,-0.26954,-0.21807,<undefined>
D90,devprop,F07,famous,D,113,773,TRUE,s009,<undefined>,-0.013889,-0.086957,<undefined>,<undefined>,-0.30928,-0.33163,-0.27206,<undefined>,-0.09124,0.15625,-0.42857,0.33333,0.21875,<undefined>
D91,devprop,F07,famous,D,84,1501,TRUE,s010,<undefined>,0.29167,-0.21932,<undefined>,<undefined>,-0.092784,-0.10714,0.095588,-0.09124,<undefined>,-0.016129,-0.47968,-0.17465,0.021664,<undefined>
D92,devprop,F07,famous,D,88,934,TRUE,s011,<undefined>,0.13889,-0.18382,<undefined>,<undefined>,-0.28778,-0.30612,-0.27941,0.15625,-0.016129,<undefined>,-0.25712,-0.024968,0.058058,<undefined>
D93,devprop,F07,famous,D,19,1184,TRUE,s012,<undefined>,-0.21984,0.032929,<undefined>,<undefined>,-0.23711,-0.17857,-0.13971,-0.42857,-0.47968,-0.25712,<undefined>,-0.52381,-0.59045,<undefined>
D94,devprop,F07,famous,D,49,746,TRUE,s013,<undefined>,-0.076184,0.17391,<undefined>,<undefined>,-0.3299,-0.31122,-0.26954,0.33333,-0.17465,-0.024968,-0.52381,<undefined>,0.32858,<undefined>
D95,devprop,F07,famous,D,72,877,TRUE,s014,<undefined>,-0.05079,0.080137,<undefined>,<undefined>,-0.30412,-0.29592,-0.21807,0.21875,0.021664,0.058058,-0.59045,0.32858,<undefined>,<undefined>
D96,devprop,F07,famous,D,151,1396,FALSE,s015,<undefined>,<undefined>,<undefined>,<undefined>,<undefined>,<undefined>,<undefined>,<undefined>,<undefined>,<undefined>,<undefined>,<undefined>,<undefined>,<undefined>,<undefined>
D06,devprop,F08,famous,A,106,3121,FALSE,s001,<undefined>,<undefined>,<undefined>,<undefined>,<undefined>,<undefined>,<undefined>,<undefined>,<undefined>,<undefined>,<undefined>,<undefined>,<undefined>,<undefined>,<undefined>
D08,devprop,F08,famous,A,89,3237,FALSE,s002,<undefined>,<undefined>,<undefined>,<undefined>,<undefined>,<undefined>,<undefined>,<undefined>,<undefined>,<undefined>,<undefined>,<undefined>,<undefined>,<undefined>,<undefined>
D13,devprop,F08,famous,A,109,1833,TRUE,s003,<undefined>,<undefined>,<undefined>,<undefined>,<undefined>,-0.070717,<undefined>,-0.21502,-0.56061,<undefined>,<undefined>,-0.13514,<undefined>,<undefined>,0.34408
D14,devprop,F08,famous,A,68,1995,FALSE,s004,<undefined>,<undefined>,<undefined>,<undefined>,<undefined>,<undefined>,<undefined>,<undefined>,<undefined>,<undefined>,<undefined>,<undefined>,<undefined>,<undefined>,<undefined>
D15,devprop,F08,famous,A,147,1190,FALSE,s005,<undefined>,<undefined>,<undefined>,<undefined>,<undefined>,<undefined>,<undefined>,<undefined>,<undefined>,<undefined>,<undefined>,<undefined>,<undefined>,<undefined>,<undefined>
D16,devprop,F08,famous,A,135,3203,TRUE,s006,<undefined>,<undefined>,-0.070717,<undefined>,<undefined>,<undefined>,<undefined>,-0.07377,-0.10656,<undefined>,<undefined>,-0.30187,<undefined>,<undefined>,0.076824
D17,devprop,F08,famous,A,40,3519,FALSE,s007,<undefined>,<undefined>,<undefined>,<undefined>,<undefined>,<undefined>,<undefined>,<undefined>,<undefined>,<undefined>,<undefined>,<undefined>,<undefined>,<undefined>,<undefined>
D18,devprop,F08,famous,A,50,1654,TRUE,s008,<undefined>,<undefined>,-0.21502,<undefined>,<undefined>,-0.07377,<undefined>,<undefined>,-0.058824,<undefined>,<undefined>,-0.25,<undefined>,<undefined>,-0.048915
D90,devprop,F08,famous,A,82,901,TRUE,s009,<undefined>,<undefined>,-0.56061,<undefined>,<undefined>,-0.10656,<undefined>,-0.058824,<undefined>,<undefined>,<undefined>,-0.52497,<undefined>,<undefined>,-0.20213
D91,devprop,F08,famous,A,60,2428,FALSE,s010,<undefined>,<undefined>,<undefined>,<undefined>,<undefined>,<undefined>,<undefined>,<undefined>,<undefined>,<undefined>,<undefined>,<undefined>,<undefined>,<undefined>,<undefined>
D92,devprop,F08,famous,A,129,3953,FALSE,s011,<undefined>,<undefined>,<undefined>,<undefined>,<undefined>,<undefined>,<undefined>,<undefined>,<undefined>,<undefined>,<undefined>,<undefined>,<undefined>,<undefined>,<undefined>
D93,devprop,F08,famous,A,73,1200,TRUE,s012,<undefined>,<undefined>,-0.13514,<undefined>,<undefined>,-0.30187,<undefined>,-0.25,-0.52497,<undefined>,<undefined>,<undefined>,<undefined>,<undefined>,-0.21277
D94,devprop,F08,famous,A,73,953,FALSE,s013,<undefined>,<undefined>,<undefined>,<undefined>,<undefined>,<undefined>,<undefined>,<undefined>,<undefined>,<undefined>,<undefined>,<undefined>,<undefined>,<undefined>,<undefined>
D95,devprop,F08,famous,A,122,2334,FALSE,s014,<undefined>,<undefined>,<undefined>,<undefined>,<undefined>,<undefined>,<undefined>,<undefined>,<undefined>,<undefined>,<undefined>,<undefined>,<undefined>,<undefined>,<undefined>
D96,devprop,F08,famous,A,147,2466,TRUE,s015,<undefined>,<undefined>,0.34408,<undefined>,<undefined>,0.076824,<undefined>,-0.048915,-0.20213,<undefined>,<undefined>,-0.21277,<undefined>,<undefined>,<undefined>
D06,devprop,F08,famous,B,12,4042,FALSE,s001,<undefined>,<undefined>,<undefined>,<undefined>,<undefined>,<undefined>,<undefined>,<undefined>,<undefined>,<undefined>,<undefined>,<undefined>,<undefined>,<undefined>,<undefined>
D08,devprop,F08,famous,B,146,2593,FALSE,s002,<undefined>,<undefined>,<undefined>,<undefined>,<undefined>,<undefined>,<undefined>,<undefined>,<undefined>,<undefined>,<undefined>,<undefined>,<undefined>,<undefined>,<undefined>
D13,devprop,F08,famous,B,65,3348,TRUE,s003,<undefined>,<undefined>,<undefined>,<undefined>,<undefined>,<undefined>,<undefined>,0.098515,0.11194,<undefined>,0.23328,<undefined>,<undefined>,<undefined>,<undefined>
D14,devprop,F08,famous,B,72,2592,FALSE,s004,<undefined>,<undefined>,<undefined>,<undefined>,<undefined>,<undefined>,<undefined>,<undefined>,<undefined>,<undefined>,<undefined>,<undefined>,<undefined>,<undefined>,<undefined>
D15,devprop,F08,famous,B,4,1374,FALSE,s005,<undefined>,<undefined>,<undefined>,<undefined>,<undefined>,<undefined>,<undefined>,<undefined>,<undefined>,<undefined>,<undefined>,<undefined>,<undefined>,<undefined>,<undefined>
D16,devprop,F08,famous,B,56,6888,FALSE,s006,<undefined>,<undefined>,<undefined>,<undefined>,<undefined>,<undefined>,<undefined>,<undefined>,<undefined>,<undefined>,<undefined>,<undefined>,<undefined>,<undefined>,<undefined>
D17,devprop,F08,famous,B,47,2538,FALSE,s007,<undefined>,<undefined>,<undefined>,<undefined>,<undefined>,<undefined>,<undefined>,<undefined>,<undefined>,<undefined>,<undefined>,<undefined>,<undefined>,<undefined>,<undefined>
D18,devprop,F08,famous,B,14,2443,TRUE,s008,<undefined>,<undefined>,0.098515,<undefined>,<undefined>,<undefined>,<undefined>,<undefined>,0.16519,<undefined>,0.17751,<undefined>,<undefined>,<undefined>,<undefined>
D90,devprop,F08,famous,B,24,2203,TRUE,s009,<undefined>,<undefined>,0.11194,<undefined>,<undefined>,<undefined>,<undefined>,0.16519,<undefined>,<undefined>,0.055556,<undefined>,<undefined>,<undefined>,<undefined>
D91,devprop,F08,famous,B,139,2719,FALSE,s010,<undefined>,<undefined>,<undefined>,<undefined>,<undefined>,<undefined>,<undefined>,<undefined>,<undefined>,<undefined>,<undefined>,<undefined>,<undefined>,<undefined>,<undefined>
D92,devprop,F08,famous,B,86,2806,TRUE,s011,<undefined>,<undefined>,0.23328,<undefined>,<undefined>,<undefined>,<undefined>,0.17751,0.055556,<undefined>,<undefined>,<undefined>,<undefined>,<undefined>,<undefined>
D93,devprop,F08,famous,B,5,1034,FALSE,s012,<undefined>,<undefined>,<undefined>,<undefined>,<undefined>,<undefined>,<undefined>,<undefined>,<undefined>,<undefined>,<undefined>,<undefined>,<undefined>,<undefined>,<undefined>
D94,devprop,F08,famous,B,28,1350,FALSE,s013,<undefined>,<undefined>,<undefined>,<undefined>,<undefined>,<undefined>,<undefined>,<undefined>,<undefined>,<undefined>,<undefined>,<undefined>,<undefined>,<undefined>,<undefined>
D95,devprop,F08,famous,B,63,2084,FALSE,s014,<undefined>,<undefined>,<undefined>,<undefined>,<undefined>,<undefined>,<undefined>,<undefined>,<undefined>,<undefined>,<undefined>,<undefined>,<undefined>,<undefined>,<undefined>
D96,devprop,F08,famous,B,59,1649,FALSE,s015,<undefined>,<undefined>,<undefined>,<undefined>,<undefined>,<undefined>,<undefined>,<undefined>,<undefined>,<undefined>,<undefined>,<undefined>,<undefined>,<undefined>,<undefined>
D06,devprop,F08,famous,C,95,4059,FALSE,s001,<undefined>,<undefined>,<undefined>,<undefined>,<undefined>,<undefined>,<undefined>,<undefined>,<undefined>,<undefined>,<undefined>,<undefined>,<undefined>,<undefined>,<undefined>
D08,devprop,F08,famous,C,95,3309,FALSE,s002,<undefined>,<undefined>,<undefined>,<undefined>,<undefined>,<undefined>,<undefined>,<undefined>,<undefined>,<undefined>,<undefined>,<undefined>,<undefined>,<undefined>,<undefined>
D13,devprop,F08,famous,C,42,2754,TRUE,s003,<undefined>,<undefined>,<undefined>,<undefined>,<undefined>,-0.037103,<undefined>,-0.018519,<undefined>,<undefined>,<undefined>,-0.2574,<undefined>,<undefined>,<undefined>
D14,devprop,F08,famous,C,5,2508,FALSE,s004,<undefined>,<undefined>,<undefined>,<undefined>,<undefined>,<undefined>,<undefined>,<undefined>,<undefined>,<undefined>,<undefined>,<undefined>,<undefined>,<undefined>,<undefined>
D15,devprop,F08,famous,C,122,1681,FALSE,s005,<undefined>,<undefined>,<undefined>,<undefined>,<undefined>,<undefined>,<undefined>,<undefined>,<undefined>,<undefined>,<undefined>,<undefined>,<undefined>,<undefined>,<undefined>
D16,devprop,F08,famous,C,8,5335,TRUE,s006,<undefined>,<undefined>,-0.037103,<undefined>,<undefined>,<undefined>,<undefined>,-0.16667,<undefined>,<undefined>,<undefined>,-0.15517,<undefined>,<undefined>,<undefined>
D17,devprop,F08,famous,C,38,2689,FALSE,s007,<undefined>,<undefined>,<undefined>,<undefined>,<undefined>,<undefined>,<undefined>,<undefined>,<undefined>,<undefined>,<undefined>,<undefined>,<undefined>,<undefined>,<undefined>
D18,devprop,F08,famous,C,55,970,TRUE,s008,<undefined>,<undefined>,-0.018519,<undefined>,<undefined>,-0.16667,<undefined>,<undefined>,<undefined>,<undefined>,<undefined>,0.1299,<undefined>,<undefined>,<undefined>
D90,devprop,F08,famous,C,52,1249,FALSE,s009,<undefined>,<undefined>,<undefined>,<undefined>,<undefined>,<undefined>,<undefined>,<undefined>,<undefined>,<undefined>,<undefined>,<undefined>,<undefined>,<undefined>,<undefined>
D91,devprop,F08,famous,C,2,1586,FALSE,s010,<undefined>,<undefined>,<undefined>,<undefined>,<undefined>,<undefined>,<undefined>,<undefined>,<undefined>,<undefined>,<undefined>,<undefined>,<undefined>,<undefined>,<undefined>
D92,devprop,F08,famous,C,145,3119,FALSE,s011,<undefined>,<undefined>,<undefined>,<undefined>,<undefined>,<undefined>,<undefined>,<undefined>,<undefined>,<undefined>,<undefined>,<undefined>,<undefined>,<undefined>,<undefined>
D93,devprop,F08,famous,C,136,1252,TRUE,s012,<undefined>,<undefined>,-0.2574,<undefined>,<undefined>,-0.15517,<undefined>,0.1299,<undefined>,<undefined>,<undefined>,<undefined>,<undefined>,<undefined>,<undefined>
D94,devprop,F08,famous,C,97,1378,FALSE,s013,<undefined>,<undefined>,<undefined>,<undefined>,<undefined>,<undefined>,<undefined>,<undefined>,<undefined>,<undefined>,<undefined>,<undefined>,<undefined>,<undefined>,<undefined>
D95,devprop,F08,famous,C,134,2183,FALSE,s014,<undefined>,<undefined>,<undefined>,<undefined>,<undefined>,<undefined>,<undefined>,<undefined>,<undefined>,<undefined>,<undefined>,<undefined>,<undefined>,<undefined>,<undefined>
D96,devprop,F08,famous,C,65,2770,FALSE,s015,<undefined>,<undefined>,<undefined>,<undefined>,<undefined>,<undefined>,<undefined>,<undefined>,<undefined>,<undefined>,<undefined>,<undefined>,<undefined>,<undefined>,<undefined>
D06,devprop,F08,famous,D,93,3350,FALSE,s001,<undefined>,<undefined>,<undefined>,<undefined>,<undefined>,<undefined>,<undefined>,<undefined>,<undefined>,<undefined>,<undefined>,<undefined>,<undefined>,<undefined>,<undefined>
D08,devprop,F08,famous,D,137,3794,FALSE,s002,<undefined>,<undefined>,<undefined>,<undefined>,<undefined>,<undefined>,<undefined>,<undefined>,<undefined>,<undefined>,<undefined>,<undefined>,<undefined>,<undefined>,<undefined>
D13,devprop,F08,famous,D,4,6044,TRUE,s003,<undefined>,<undefined>,<undefined>,<undefined>,<undefined>,0.13021,<undefined>,-0.35417,-0.41146,<undefined>,0.19912,-0.23438,<undefined>,0.11726,-0.25564
D14,devprop,F08,famous,D,11,2324,FALSE,s004,<undefined>,<undefined>,<undefined>,<undefined>,<undefined>,<undefined>,<undefined>,<undefined>,<undefined>,<undefined>,<undefined>,<undefined>,<undefined>,<undefined>,<undefined>
D15,devprop,F08,famous,D,85,1174,FALSE,s005,<undefined>,<undefined>,<undefined>,<undefined>,<undefined>,<undefined>,<undefined>,<undefined>,<undefined>,<undefined>,<undefined>,<undefined>,<undefined>,<undefined>,<undefined>
D16,devprop,F08,famous,D,34,6687,TRUE,s006,<undefined>,<undefined>,0.13021,<undefined>,<undefined>,<undefined>,<undefined>,-0.12729,-0.2809,<undefined>,-0.0027263,-0.25185,<undefined>,0.1236,-0.054252
D17,devprop,F08,famous,D,107,3192,FALSE,s007,<undefined>,<undefined>,<undefined>,<undefined>,<undefined>,<undefined>,<undefined>,<undefined>,<undefined>,<undefined>,<undefined>,<undefined>,<undefined>,<undefined>,<undefined>
D18,devprop,F08,famous,D,143,1913,TRUE,s008,<undefined>,<undefined>,-0.35417,<undefined>,<undefined>,-0.12729,<undefined>,<undefined>,0.046875,<undefined>,-0.1,-0.67188,<undefined>,-0.2234,-0.064141
D90,devprop,F08,famous,D,60,975,TRUE,s009,<undefined>,<undefined>,-0.41146,<undefined>,<undefined>,-0.2809,<undefined>,0.046875,<undefined>,<undefined>,-0.21538,-0.54368,<undefined>,-0.37052,-0.09434
D91,devprop,F08,famous,D,125,2417,FALSE,s010,<undefined>,<undefined>,<undefined>,<undefined>,<undefined>,<undefined>,<undefined>,<undefined>,<undefined>,<undefined>,<undefined>,<undefined>,<undefined>,<undefined>,<undefined>
D92,devprop,F08,famous,D,76,3442,TRUE,s011,<undefined>,<undefined>,0.19912,<undefined>,<undefined>,-0.0027263,<undefined>,-0.1,-0.21538,<undefined>,<undefined>,-0.12945,<undefined>,0.12617,0.081109
D93,devprop,F08,famous,D,11,1440,TRUE,s012,<undefined>,<undefined>,-0.23438,<undefined>,<undefined>,-0.25185,<undefined>,-0.67188,-0.54368,<undefined>,-0.12945,<undefined>,<undefined>,-0.060179,-0.21213
D94,devprop,F08,famous,D,109,1572,FALSE,s013,<undefined>,<undefined>,<undefined>,<undefined>,<undefined>,<undefined>,<undefined>,<undefined>,<undefined>,<undefined>,<undefined>,<undefined>,<undefined>,<undefined>,<undefined>
D95,devprop,F08,famous,D,19,2328,TRUE,s014,<undefined>,<undefined>,0.11726,<undefined>,<undefined>,0.1236,<undefined>,-0.2234,-0.37052,<undefined>,0.12617,-0.060179,<undefined>,<undefined>,-0.10807
D96,devprop,F08,famous,D,49,2770,TRUE,s015,<undefined>,<undefined>,-0.25564,<undefined>,<undefined>,-0.054252,<undefined>,-0.064141,-0.09434,<undefined>,0.081109,-0.21213,<undefined>,-0.10807,<undefined>
D06,devprop,F09,famous,A,126,4805,FALSE,s001,<undefined>,<undefined>,<undefined>,<undefined>,<undefined>,<undefined>,<undefined>,<undefined>,<undefined>,<undefined>,<undefined>,<undefined>,<undefined>,<undefined>,<undefined>
D08,devprop,F09,famous,A,94,1579,TRUE,s002,<undefined>,<undefined>,0.041414,-0.11574,-0.039384,0.090909,<undefined>,0.12069,-0.22581,<undefined>,<undefined>,-0.27586,-0.15466,-0.068712,0.31343
D13,devprop,F09,famous,A,16,1425,TRUE,s003,<undefined>,0.041414,<undefined>,-0.33848,0.011833,-0.44415,<undefined>,0.051724,-0.47834,<undefined>,<undefined>,-0.24138,0.0202,-0.22929,-0.0043071
D14,devprop,F09,famous,A,12,2909,TRUE,s004,<undefined>,-0.11574,-0.33848,<undefined>,-0.07893,-0.13269,<undefined>,-0.32469,-0.26657,<undefined>,<undefined>,-0.43777,-0.26246,0.26151,-0.033898
D15,devprop,F09,famous,A,36,1519,TRUE,s005,<undefined>,-0.039384,0.011833,-0.07893,<undefined>,0.048054,<undefined>,-0.055556,-0.20691,<undefined>,<undefined>,-0.11111,0.10212,-0.078812,-0.055407
D16,devprop,F09,famous,A,92,1816,TRUE,s006,<undefined>,0.090909,-0.44415,-0.13269,0.048054,<undefined>,<undefined>,-0.11861,-0.41384,<undefined>,<undefined>,-0.17662,-0.38569,-0.088911,0
D17,devprop,F09,famous,A,105,2728,FALSE,s007,<undefined>,<undefined>,<undefined>,<undefined>,<undefined>,<undefined>,<undefined>,<undefined>,<undefined>,<undefined>,<undefined>,<undefined>,<undefined>,<undefined>,<undefined>
D18,devprop,F09,famous,A,53,1157,TRUE,s008,<undefined>,0.12069,0.051724,-0.32469,-0.055556,-0.11861,<undefined>,<undefined>,-0.27649,<undefined>,<undefined>,-0.14583,-0.35417,-0.22414,-0.052807
D90,devprop,F09,famous,A,75,1773,TRUE,s009,<undefined>,-0.22581,-0.47834,-0.26657,-0.20691,-0.41384,<undefined>,-0.27649,<undefined>,<undefined>,<undefined>,-0.064516,-0.46497,-0.24531,-0.24458
D91,devprop,F09,famous,A,112,2072,FALSE,s010,<undefined>,<undefined>,<undefined>,<undefined>,<undefined>,<undefined>,<undefined>,<undefined>,<undefined>,<undefined>,<undefined>,<undefined>,<undefined>,<undefined>,<undefined>
D92,devprop,F09,famous,A,154,2022,FALSE,s011,<undefined>,<undefined>,<undefined>,<undefined>,<undefined>,<undefined>,<undefined>,<undefined>,<undefined>,<undefined>,<undefined>,<undefined>,<undefined>,<undefined>,<undefined>
D93,devprop,F09,famous,A,47,1174,TRUE,s012,<undefined>,-0.27586,-0.24138,-0.43777,-0.11111,-0.17662,<undefined>,-0.14583,-0.064516,<undefined>,<undefined>,<undefined>,-0.61925,-0.34039,-0.28008
