subj,ability,face,fame,angle,trial,rt,acc,sq,iaseq,s001,s002,s003,s004,s005,s006,s007,s008,s009,s010,s011,s012,s013,s014,s015
S01,super,F01,famous,A,52,916,TRUE,s001,dBdBdBdBdBdBdBdBdBdBdBdBdBdBdBdBdBdBdB,x,dBdBdBdBdBdBdBdBdBdBdB,cAcAcAdBdBdBdBdBdBdBdBdBdBdB,cAdAdAdAeBeBeBeBeBeBeBeBeB,cAcAcAcAcAcAcAdBdBdBdBdBdBcC,cBcBcBdBdBdBdBdBdBdBdBdBdB,cAcAcAcAdBdBdBdBdBdBdBdBdBdB,dBdBdBdBdBdBdBdBdBdBdBdBdBdBdBdBdB,cAdBdBdBcBcBcBcBcBcB,cAcAcAcAcAcCcCcCcCcCdBdBdBcAcAcAcAcAcCcCcCcCcCcC,cCcCcCcCdBdBdBdBdBdBdBdBdBdBdB,cAdBdBdBdBdBdBdBdBdBdBdBdBdB,cAcAcAcAcCcCcCcCcCcCcCcCcCcA,cAcAcAdBdBdBdBdBdBdBdBeBeB,cAcAcAcAcAcAdAdAdAcCcCcCcCcCcCdAdAdAdAdAdA
S02,super,F01,famous,A,94,516,TRUE,s002,dBdBdBdBdBdBdBdBdBdBdB,dBdBdBdBdBdBdBdBdBdBdBdBdBdBdBdBdBdBdB,x,cAcAcAdBdBdBdBdBdBdBdBdBdBdB,cAdAdAdAeBeBeBeBeBeBeBeBeB,cAcAcAcAcAcAcAdBdBdBdBdBdBcC,cBcBcBdBdBdBdBdBdBdBdBdBdB,cAcAcAcAdBdBdBdBdBdBdBdBdBdB,dBdBdBdBdBdBdBdBdBdBdBdBdBdBdBdBdB,cAdBdBdBcBcBcBcBcBcB,cAcAcAcAcAcCcCcCcCcCdBdBdBcAcAcAcAcAcCcCcCcCcCcC,cCcCcCcCdBdBdBdBdBdBdBdBdBdBdB,cAdBdBdBdBdBdBdBdBdBdBdBdBdB,cAcAcAcAcCcCcCcCcCcCcCcCcCcA,cAcAcAdBdBdBdBdBdBdBdBeBeB,cAcAcAcAcAcAdAdAdAcCcCcCcCcCcCdAdAdAdAdAdA
S03,super,F01,famous,A,151,812,TRUE,s003,cAcAcAdBdBdBdBdBdBdBdBdBdBdB,dBdBdBdBdBdBdBdBdBdBdBdBdBdBdBdBdBdBdB,dBdBdBdBdBdBdBdBdBdBdB,x,cAdAdAdAeBeBeBeBeBeBeBeBeB,cAcAcAcAcAcAcAdBdBdBdBdBdBcC,cBcBcBdBdBdBdBdBdBdBdBdBdB,cAcAcAcAdBdBdBdBdBdBdBdBdBdB,dBdBdBdBdBdBdBdBdBdBdBdBdBdBdBdBdB,cAdBdBdBcBcBcBcBcBcB,cAcAcAcAcAcCcCcCcCcCdBdBdBcAcAcAcAcAcCcCcCcCcCcC,cCcCcCcCdBdBdBdBdBdBdBdBdBdBdB,cAdBdBdBdBdBdBdBdBdBdBdBdBdB,cAcAcAcAcCcCcCcCcCcCcCcCcCcA,cAcAcAdBdBdBdBdBdBdBdBeBeB,cAcAcAcAcAcAdAdAdAcCcCcCcCcCcCdAdAdAdAdAdA
S04,super,F01,famous,A,46,836,TRUE,s004,cAdAdAdAeBeBeBeBeBeBeBeBeB,dBdBdBdBdBdBdBdBdBdBdBdBdBdBdBdBdBdBdB,dBdBdBdBdBdBdBdBdBdBdB,cAcAcAdBdBdBdBdBdBdBdBdBdBdB,x,cAcAcAcAcAcAcAdBdBdBdBdBdBcC,cBcBcBdBdBdBdBdBdBdBdBdBdB,cAcAcAcAdBdBdBdBdBdBdBdBdBdB,dBdBdBdBdBdBdBdBdBdBdBdBdBdBdBdBdB,cAdBdBdBcBcBcBcBcBcB,cAcAcAcAcAcCcCcCcCcCdBdBdBcAcAcAcAcAcCcCcCcCcCcC,cCcCcCcCdBdBdBdBdBdBdBdBdBdBdB,cAdBdBdBdBdBdBdBdBdBdBdBdBdB,cAcAcAcAcCcCcCcCcCcCcCcCcCcA,cAcAcAdBdBdBdBdBdBdBdBeBeB,cAcAcAcAcAcAdAdAdAcCcCcCcCcCcCdAdAdAdAdAdA
S07,super,F01,famous,A,21,863,TRUE,s005,cAcAcAcAcAcAcAdBdBdBdBdBdBcC,dBdBdBdBdBdBdBdBdBdBdBdBdBdBdBdBdBdBdB,dBdBdBdBdBdBdBdBdBdBdB,cAcAcAdBdBdBdBdBdBdBdBdBdBdB,cAdAdAdAeBeBeBeBeBeBeBeBeB,x,cBcBcBdBdBdBdBdBdBdBdBdBdB,cAcAcAcAdBdBdBdBdBdBdBdBdBdB,dBdBdBdBdBdBdBdBdBdBdBdBdBdBdBdBdB,cAdBdBdBcBcBcBcBcBcB,cAcAcAcAcAcCcCcCcCcCdBdBdBcAcAcAcAcAcCcCcCcCcCcC,cCcCcCcCdBdBdBdBdBdBdBdBdBdBdB,cAdBdBdBdBdBdBdBdBdBdBdBdBdB,cAcAcAcAcCcCcCcCcCcCcCcCcCcA,cAcAcAdBdBdBdBdBdBdBdBeBeB,cAcAcAcAcAcAdAdAdAcCcCcCcCcCcCdAdAdAdAdAdA
S09,super,F01,famous,A,142,838,TRUE,s006,cBcBcBdBdBdBdBdBdBdBdBdBdB,dBdBdBdBdBdBdBdBdBdBdBdBdBdBdBdBdBdBdB,dBdBdBdBdBdBdBdBdBdBdB,cAcAcAdBdBdBdBdBdBdBdBdBdBdB,cAdAdAdAeBeBeBeBeBeBeBeBeB,cAcAcAcAcAcAcAdBdBdBdBdBdBcC,x,cAcAcAcAdBdBdBdBdBdBdBdBdBdB,dBdBdBdBdBdBdBdBdBdBdBdBdBdBdBdBdB,cAdBdBdBcBcBcBcBcBcB,cAcAcAcAcAcCcCcCcCcCdBdBdBcAcAcAcAcAcCcCcCcCcCcC,cCcCcCcCdBdBdBdBdBdBdBdBdBdBdB,cAdBdBdBdBdBdBdBdBdBdBdBdBdB,cAcAcAcAcCcCcCcCcCcCcCcCcCcA,cAcAcAdBdBdBdBdBdBdBdBeBeB,cAcAcAcAcAcAdAdAdAcCcCcCcCcCcCdAdAdAdAdAdA
S10,super,F01,famous,A,17,676,TRUE,s007,cAcAcAcAdBdBdBdBdBdBdBdBdBdB,dBdBdBdBdBdBdBdBdBdBdBdBdBdBdBdBdBdBdB,dBdBdBdBdBdBdBdBdBdBdB,cAcAcAdBdBdBdBdBdBdBdBdBdBdB,cAdAdAdAeBeBeBeBeBeBeBeBeB,cAcAcAcAcAcAcAdBdBdBdBdBdBcC,cBcBcBdBdBdBdBdBdBdBdBdBdB,x,dBdBdBdBdBdBdBdBdBdBdBdBdBdBdBdBdB,cAdBdBdBcBcBcBcBcBcB,cAcAcAcAcAcCcCcCcCcCdBdBdBcAcAcAcAcAcCcCcCcCcCcC,cCcCcCcCdBdBdBdBdBdBdBdBdBdBdB,cAdBdBdBdBdBdBdBdBdBdBdBdBdB,cAcAcAcAcCcCcCcCcCcCcCcCcCcA,cAcAcAdBdBdBdBdBdBdBdBeBeB,cAcAcAcAcAcAdAdAdAcCcCcCcCcCcCdAdAdAdAdAdA
S11,super,F01,famous,A,144,807,TRUE,s008,dBdBdBdBdBdBdBdBdBdBdBdBdBdBdBdBdB,dBdBdBdBdBdBdBdBdBdBdBdBdBdBdBdBdBdBdB,dBdBdBdBdBdBdBdBdBdBdB,cAcAcAdBdBdBdBdBdBdBdBdBdBdB,cAdAdAdAeBeBeBeBeBeBeBeBeB,cAcAcAcAcAcAcAdBdBdBdBdBdBcC,cBcBcBdBdBdBdBdBdBdBdBdBdB,cAcAcAcAdBdBdBdBdBdBdBdBdBdB,x,cAdBdBdBcBcBcBcBcBcB,cAcAcAcAcAcCcCcCcCcCdBdBdBcAcAcAcAcAcCcCcCcCcCcC,cCcCcCcCdBdBdBdBdBdBdBdBdBdBdB,cAdBdBdBdBdBdBdBdBdBdBdBdBdB,cAcAcAcAcCcCcCcCcCcCcCcCcCcA,cAcAcAdBdBdBdBdBdBdBdBeBeB,cAcAcAcAcAcAdAdAdAcCcCcCcCcCcCdAdAdAdAdAdA
S12,super,F01,famous,A,119,543,TRUE,s009,cAdBdBdBcBcBcBcBcBcB,dBdBdBdBdBdBdBdBdBdBdBdBdBdBdBdBdBdBdB,dBdBdBdBdBdBdBdBdBdBdB,cAcAcAdBdBdBdBdBdBdBdBdBdBdB,cAdAdAdAeBeBeBeBeBeBeBeBeB,cAcAcAcAcAcAcAdBdBdBdBdBdBcC,cBcBcBdBdBdBdBdBdBdBdBdBdB,cAcAcAcAdBdBdBdBdBdBdBdBdBdB,dBdBdBdBdBdBdBdBdBdBdBdBdBdBdBdBdB,x,cAcAcAcAcAcCcCcCcCcCdBdBdBcAcAcAcAcAcCcCcCcCcCcC,cCcCcCcCdBdBdBdBdBdBdBdBdBdBdB,cAdBdBdBdBdBdBdBdBdBdBdBdBdB,cAcAcAcAcCcCcCcCcCcCcCcCcCcA,cAcAcAdBdBdBdBdBdBdBdBeBeB,cAcAcAcAcAcAdAdAdAcCcCcCcCcCcCdAdAdAdAdAdA
S13,super,F01,famous,A,67,1187,TRUE,s010,cAcAcAcAcAcCcCcCcCcCdBdBdBcAcAcAcAcAcCcCcCcCcCcC,dBdBdBdBdBdBdBdBdBdBdBdBdBdBdBdBdBdBdB,dBdBdBdBdBdBdBdBdBdBdB,cAcAcAdBdBdBdBdBdBdBdBdBdBdB,cAdAdAdAeBeBeBeBeBeBeBeBeB,cAcAcAcAcAcAcAdBdBdBdBdBdBcC,cBcBcBdBdBdBdBdBdBdBdBdBdB,cAcAcAcAdBdBdBdBdBdBdBdBdBdB,dBdBdBdBdBdBdBdBdBdBdBdBdBdBdBdBdB,cAdBdBdBcBcBcBcBcBcB,x,cCcCcCcCdBdBdBdBdBdBdBdBdBdBdB,cAdBdBdBdBdBdBdBdBdBdBdBdBdB,cAcAcAcAcCcCcCcCcCcCcCcCcCcA,cAcAcAdBdBdBdBdBdBdBdBeBeB,cAcAcAcAcAcAdAdAdAcCcCcCcCcCcCdAdAdAdAdAdA
S14,super,F01,famous,A,89,708,TRUE,s011,cCcCcCcCdBdBdBdBdBdBdBdBdBdBdB,dBdBdBdBdBdBdBdBdBdBdBdBdBdBdBdBdBdBdB,dBdBdBdBdBdBdBdBdBdBdB,cAcAcAdBdBdBdBdBdBdBdBdBdBdB,cAdAdAdAeBeBeBeBeBeBeBeBeB,cAcAcAcAcAcAcAdBdBdBdBdBdBcC,cBcBcBdBdBdBdBdBdBdBdBdBdB,cAcAcAcAdBdBdBdBdBdBdBdBdBdB,dBdBdBdBdBdBdBdBdBdBdBdBdBdBdBdBdB,cAdBdBdBcBcBcBcBcBcB,cAcAcAcAcAcCcCcCcCcCdBdBdBcAcAcAcAcAcCcCcCcCcCcC,x,cAdBdBdBdBdBdBdBdBdBdBdBdBdB,cAcAcAcAcCcCcCcCcCcCcCcCcCcA,cAcAcAdBdBdBdBdBdBdBdBeBeB,cAcAcAcAcAcAdAdAdAcCcCcCcCcCcCdAdAdAdAdAdA
S15,super,F01,famous,A,94,981,TRUE,s012,cAdBdBdBdBdBdBdBdBdBdBdBdBdB,dBdBdBdBdBdBdBdBdBdBdBdBdBdBdBdBdBdBdB,dBdBdBdBdBdBdBdBdBdBdB,cAcAcAdBdBdBdBdBdBdBdBdBdBdB,cAdAdAdAeBeBeBeBeBeBeBeBeB,cAcAcAcAcAcAcAdBdBdBdBdBdBcC,cBcBcBdBdBdBdBdBdBdBdBdBdB,cAcAcAcAdBdBdBdBdBdBdBdBdBdB,dBdBdBdBdBdBdBdBdBdBdBdBdBdBdBdBdB,cAdBdBdBcBcBcBcBcBcB,cAcAcAcAcAcCcCcCcCcCdBdBdBcAcAcAcAcAcCcCcCcCcCcC,cCcCcCcCdBdBdBdBdBdBdBdBdBdBdB,x,cAcAcAcAcCcCcCcCcCcCcCcCcCcA,cAcAcAdBdBdBdBdBdBdBdBeBeB,cAcAcAcAcAcAdAdAdAcCcCcCcCcCcCdAdAdAdAdAdA
S17,super,F01,famous,A,124,998,TRUE,s013,cAcAcAcAcCcCcCcCcCcCcCcCcCcA,dBdBdBdBdBdBdBdBdBdBdBdBdBdBdBdBdBdBdB,dBdBdBdBdBdBdBdBdBdBdB,cAcAcAdBdBdBdBdBdBdBdBdBdBdB,cAdAdAdAeBeBeBeBeBeBeBeBeB,cAcAcAcAcAcAcAdBdBdBdBdBdBcC,cBcBcBdBdBdBdBdBdBdBdBdBdB,cAcAcAcAdBdBdBdBdBdBdBdBdBdB,dBdBdBdBdBdBdBdBdBdBdBdBdBdBdBdBdB,cAdBdBdBcBcBcBcBcBcB,cAcAcAcAcAcCcCcCcCcCdBdBdBcAcAcAcAcAcCcCcCcCcCcC,cCcCcCcCdBdBdBdBdBdBdBdBdBdBdB,cAdBdBdBdBdBdBdBdBdBdBdBdBdB,x,cAcAcAdBdBdBdBdBdBdBdBeBeB,cAcAcAcAcAcAdAdAdAcCcCcCcCcCcCdAdAdAdAdAdA
S90,super,F01,famous,A,79,783,TRUE,s014,cAcAcAdBdBdBdBdBdBdBdBeBeB,dBdBdBdBdBdBdBdBdBdBdBdBdBdBdBdBdBdBdB,dBdBdBdBdBdBdBdBdBdBdB,cAcAcAdBdBdBdBdBdBdBdBdBdBdB,cAdAdAdAeBeBeBeBeBeBeBeBeB,cAcAcAcAcAcAcAdBdBdBdBdBdBcC,cBcBcBdBdBdBdBdBdBdBdBdBdB,cAcAcAcAdBdBdBdBdBdBdBdBdBdB,dBdBdBdBdBdBdBdBdBdBdBdBdBdBdBdBdB,cAdBdBdBcBcBcBcBcBcB,cAcAcAcAcAcCcCcCcCcCdBdBdBcAcAcAcAcAcCcCcCcCcCcC,cCcCcCcCdBdBdBdBdBdBdBdBdBdBdB,cAdBdBdBdBdBdBdBdBdBdBdBdBdB,cAcAcAcAcCcCcCcCcCcCcCcCcCcA,x,cAcAcAcAcAcAdAdAdAcCcCcCcCcCcCdAdAdAdAdAdA
S91,super,F01,famous,A,10,1198,TRUE,s015,cAcAcAcAcAcAdAdAdAcCcCcCcCcCcCdAdAdAdAdAdA,dBdBdBdBdBdBdBdBdBdBdBdBdBdBdBdBdBdBdB,dBdBdBdBdBdBdBdBdBdBdB,cAcAcAdBdBdBdBdBdBdBdBdBdBdB,cAdAdAdAeBeBeBeBeBeBeBeBeB,cAcAcAcAcAcAcAdBdBdBdBdBdBcC,cBcBcBdBdBdBdBdBdBdBdBdBdB,cAcAcAcAdBdBdBdBdBdBdBdBdBdB,dBdBdBdBdBdBdBdBdBdBdBdBdBdBdBdBdB,cAdBdBdBcBcBcBcBcBcB,cAcAcAcAcAcCcCcCcCcCdBdBdBcAcAcAcAcAcCcCcCcCcCcC,cCcCcCcCdBdBdBdBdBdBdBdBdBdBdB,cAdBdBdBdBdBdBdBdBdBdBdBdBdB,cAcAcAcAcCcCcCcCcCcCcCcCcCcA,cAcAcAdBdBdBdBdBdBdBdBeBeB,x
S01,super,F01,famous,B,36,860,TRUE,s001,dAeBdAdAdCdCdCdCdCdCdCdCdCdCdCdBdBdB,x,cBcBcBcBdBdBdBdBdBdBdBcCcC,dBdBdBdBdBdBdBdBdBdBcCcCcC,eBeBeBdBdCdCdCcCcCcCcCcCcC,cAcAcAcAcAcCcCcCcCcCcCcCcCcCcCcB,dAdAdAdBdBdBdBdBdBdBdBdBdBdBdBdBdB,cCcBcBdBdBdBdBdBdBdBdBdB,cCcBcBcBcBcBdBdBdBdBdBdBdBdBdBdBdBdBdB,dCdCdCdCdBdBdBdBdCcCcCcCcBcBcBcBcC,dAdAdAcAcAcAcBcCcCcCcCcAcAcAcAcBcBcBcBcBdBeBeBeBcAcAcAcAcA,dBdBdBdBdBdBdBdBdBdBcCcC,cBcBcBcBcBcBcBcCcCcCcCcCcAcAcAcA,dBdBdBdBdBdBdAdAdBdBdBdBdB,dBdBdBdBdBdBdBdBeBeBeBeBeBeB,cBcBcBcBcAcAcAcAcBcBdCdCdCdCdCdBdBdBdB
S02,super,F01,famous,B,83,649,TRUE,s002,cBcBcBcBdBdBdBdBdBdBdBcCcC,dAeBdAdAdCdCdCdCdCdCdCdCdCdCdCdBdBdB,x,dBdBdBdBdBdBdBdBdBdBcCcCcC,eBeBeBdBdCdCdCcCcCcCcCcCcC,cAcAcAcAcAcCcCcCcCcCcCcCcCcCcCcB,dAdAdAdBdBdBdBdBdBdBdBdBdBdBdBdBdB,cCcBcBdBdBdBdBdBdBdBdBdB,cCcBcBcBcBcBdBdBdBdBdBdBdBdBdBdBdBdBdB,dCdCdCdCdBdBdBdBdCcCcCcCcBcBcBcBcC,dAdAdAcAcAcAcBcCcCcCcCcAcAcAcAcBcBcBcBcBdBeBeBeBcAcAcAcAcA,dBdBdBdBdBdBdBdBdBdBcCcC,cBcBcBcBcBcBcBcCcCcCcCcCcAcAcAcA,dBdBdBdBdBdBdAdAdBdBdBdBdB,dBdBdBdBdBdBdBdBeBeBeBeBeBeB,cBcBcBcBcAcAcAcAcBcBdCdCdCdCdCdBdBdBdB
S03,super,F01,famous,B,104,769,TRUE,s003,dBdBdBdBdBdBdBdBdBdBcCcCcC,dAeBdAdAdCdCdCdCdCdCdCdCdCdCdCdBdBdB,cBcBcBcBdBdBdBdBdBdBdBcCcC,x,eBeBeBdBdCdCdCcCcCcCcCcCcC,cAcAcAcAcAcCcCcCcCcCcCcCcCcCcCcB,dAdAdAdBdBdBdBdBdBdBdBdBdBdBdBdBdB,cCcBcBdBdBdBdBdBdBdBdBdB,cCcBcBcBcBcBdBdBdBdBdBdBdBdBdBdBdBdBdB,dCdCdCdCdBdBdBdBdCcCcCcCcBcBcBcBcC,dAdAdAcAcAcAcBcCcCcCcCcAcAcAcAcBcBcBcBcBdBeBeBeBcAcAcAcAcA,dBdBdBdBdBdBdBdBdBdBcCcC,cBcBcBcBcBcBcBcCcCcCcCcCcAcAcAcA,dBdBdBdBdBdBdAdAdBdBdBdBdB,dBdBdBdBdBdBdBdBeBeBeBeBeBeB,cBcBcBcBcAcAcAcAcBcBdCdCdCdCdCdBdBdBdB
S04,super,F01,famous,B,110,890,TRUE,s004,eBeBeBdBdCdCdCcCcCcCcCcCcC,dAeBdAdAdCdCdCdCdCdCdCdCdCdCdCdBdBdB,cBcBcBcBdBdBdBdBdBdBdBcCcC,dBdBdBdBdBdBdBdBdBdBcCcCcC,x,cAcAcAcAcAcCcCcCcCcCcCcCcCcCcCcB,dAdAdAdBdBdBdBdBdBdBdBdBdBdBdBdBdB,cCcBcBdBdBdBdBdBdBdBdBdB,cCcBcBcBcBcBdBdBdBdBdBdBdBdBdBdBdBdBdB,dCdCdCdCdBdBdBdBdCcCcCcCcBcBcBcBcC,dAdAdAcAcAcAcBcCcCcCcCcAcAcAcAcBcBcBcBcBdBeBeBeBcAcAcAcAcA,dBdBdBdBdBdBdBdBdBdBcCcC,cBcBcBcBcBcBcBcCcCcCcCcCcAcAcAcA,dBdBdBdBdBdBdAdAdBdBdBdBdB,dBdBdBdBdBdBdBdBeBeBeBeBeBeB,cBcBcBcBcAcAcAcAcBcBdCdCdCdCdCdBdBdBdB
S07,super,F01,famous,B,8,1006,TRUE,s005,cAcAcAcAcAcCcCcCcCcCcCcCcCcCcCcB,dAeBdAdAdCdCdCdCdCdCdCdCdCdCdCdBdBdB,cBcBcBcBdBdBdBdBdBdBdBcCcC,dBdBdBdBdBdBdBdBdBdBcCcCcC,eBeBeBdBdCdCdCcCcCcCcCcCcC,x,dAdAdAdBdBdBdBdBdBdBdBdBdBdBdBdBdB,cCcBcBdBdBdBdBdBdBdBdBdB,cCcBcBcBcBcBdBdBdBdBdBdBdBdBdBdBdBdBdB,dCdCdCdCdBdBdBdBdCcCcCcCcBcBcBcBcC,dAdAdAcAcAcAcBcCcCcCcCcAcAcAcAcBcBcBcBcBdBeBeBeBcAcAcAcAcA,dBdBdBdBdBdBdBdBdBdBcCcC,cBcBcBcBcBcBcBcCcCcCcCcCcAcAcAcA,dBdBdBdBdBdBdAdAdBdBdBdBdB,dBdBdBdBdBdBdBdBeBeBeBeBeBeB,cBcBcBcBcAcAcAcAcBcBdCdCdCdCdCdBdBdBdB
S09,super,F01,famous,B,38,990,TRUE,s006,dAdAdAdBdBdBdBdBdBdBdBdBdBdBdBdBdB,dAeBdAdAdCdCdCdCdCdCdCdCdCdCdCdBdBdB,cBcBcBcBdBdBdBdBdBdBdBcCcC,dBdBdBdBdBdBdBdBdBdBcCcCcC,eBeBeBdBdCdCdCcCcCcCcCcCcC,cAcAcAcAcAcCcCcCcCcCcCcCcCcCcCcB,x,cCcBcBdBdBdBdBdBdBdBdBdB,cCcBcBcBcBcBdBdBdBdBdBdBdBdBdBdBdBdBdB,dCdCdCdCdBdBdBdBdCcCcCcCcBcBcBcBcC,dAdAdAcAcAcAcBcCcCcCcCcAcAcAcAcBcBcBcBcBdBeBeBeBcAcAcAcAcA,dBdBdBdBdBdBdBdBdBdBcCcC,cBcBcBcBcBcBcBcCcCcCcCcCcAcAcAcA,dBdBdBdBdBdBdAdAdBdBdBdBdB,dBdBdBdBdBdBdBdBeBeBeBeBeBeB,cBcBcBcBcAcAcAcAcBcBdCdCdCdCdCdBdBdBdB
S10,super,F01,famous,B,42,583,TRUE,s007,cCcBcBdBdBdBdBdBdBdBdBdB,dAeBdAdAdCdCdCdCdCdCdCdCdCdCdCdBdBdB,cBcBcBcBdBdBdBdBdBdBdBcCcC,dBdBdBdBdBdBdBdBdBdBcCcCcC,eBeBeBdBdCdCdCcCcCcCcCcCcC,cAcAcAcAcAcCcCcCcCcCcCcCcCcCcCcB,dAdAdAdBdBdBdBdBdBdBdBdBdBdBdBdBdB,x,cCcBcBcBcBcBdBdBdBdBdBdBdBdBdBdBdBdBdB,dCdCdCdCdBdBdBdBdCcCcCcCcBcBcBcBcC,dAdAdAcAcAcAcBcCcCcCcCcAcAcAcAcBcBcBcBcBdBeBeBeBcAcAcAcAcA,dBdBdBdBdBdBdBdBdBdBcCcC,cBcBcBcBcBcBcBcCcCcCcCcCcAcAcAcA,dBdBdBdBdBdBdAdAdBdBdBdBdB,dBdBdBdBdBdBdBdBeBeBeBeBeBeB,cBcBcBcBcAcAcAcAcBcBdCdCdCdCdCdBdBdBdB
S11,super,F01,famous,B,142,911,TRUE,s008,cCcBcBcBcBcBdBdBdBdBdBdBdBdBdBdBdBdBdB,dAeBdAdAdCdCdCdCdCdCdCdCdCdCdCdBdBdB,cBcBcBcBdBdBdBdBdBdBdBcCcC,dBdBdBdBdBdBdBdBdBdBcCcCcC,eBeBeBdBdCdCdCcCcCcCcCcCcC,cAcAcAcAcAcCcCcCcCcCcCcCcCcCcCcB,dAdAdAdBdBdBdBdBdBdBdBdBdBdBdBdBdB,cCcBcBdBdBdBdBdBdBdBdBdB,x,dCdCdCdCdBdBdBdBdCcCcCcCcBcBcBcBcC,dAdAdAcAcAcAcBcCcCcCcCcAcAcAcAcBcBcBcBcBdBeBeBeBcAcAcAcAcA,dBdBdBdBdBdBdBdBdBdBcCcC,cBcBcBcBcBcBcBcCcCcCcCcCcAcAcAcA,dBdBdBdBdBdBdAdAdBdBdBdBdB,dBdBdBdBdBdBdBdBeBeBeBeBeBeB,cBcBcBcBcAcAcAcAcBcBdCdCdCdCdCdBdBdBdB
S12,super,F01,famous,B,71,807,TRUE,s009,dCdCdCdCdBdBdBdBdCcCcCcCcBcBcBcBcC,dAeBdAdAdCdCdCdCdCdCdCdCdCdCdCdBdBdB,cBcBcBcBdBdBdBdBdBdBdBcCcC,dBdBdBdBdBdBdBdBdBdBcCcCcC,eBeBeBdBdCdCdCcCcCcCcCcCcC,cAcAcAcAcAcCcCcCcCcCcCcCcCcCcCcB,dAdAdAdBdBdBdBdBdBdBdBdBdBdBdBdBdB,cCcBcBdBdBdBdBdBdBdBdBdB,cCcBcBcBcBcBdBdBdBdBdBdBdBdBdBdBdBdBdB,x,dAdAdAcAcAcAcBcCcCcCcCcAcAcAcAcBcBcBcBcBdBeBeBeBcAcAcAcAcA,dBdBdBdBdBdBdBdBdBdBcCcC,cBcBcBcBcBcBcBcCcCcCcCcCcAcAcAcA,dBdBdBdBdBdBdAdAdBdBdBdBdB,dBdBdBdBdBdBdBdBeBeBeBeBeBeB,cBcBcBcBcAcAcAcAcBcBdCdCdCdCdCdBdBdBdB
S13,super,F01,famous,B,30,1582,TRUE,s010,dAdAdAcAcAcAcBcCcCcCcCcAcAcAcAcBcBcBcBcBdBeBeBeBcAcAcAcAcA,dAeBdAdAdCdCdCdCdCdCdCdCdCdCdCdBdBdB,cBcBcBcBdBdBdBdBdBdBdBcCcC,dBdBdBdBdBdBdBdBdBdBcCcCcC,eBeBeBdBdCdCdCcCcCcCcCcCcC,cAcAcAcAcAcCcCcCcCcCcCcCcCcCcCcB,dAdAdAdBdBdBdBdBdBdBdBdBdBdBdBdBdB,cCcBcBdBdBdBdBdBdBdBdBdB,cCcBcBcBcBcBdBdBdBdBdBdBdBdBdBdBdBdBdB,dCdCdCdCdBdBdBdBdCcCcCcCcBcBcBcBcC,x,dBdBdBdBdBdBdBdBdBdBcCcC,cBcBcBcBcBcBcBcCcCcCcCcCcAcAcAcA,dBdBdBdBdBdBdAdAdBdBdBdBdB,dBdBdBdBdBdBdBdBeBeBeBeBeBeB,cBcBcBcBcAcAcAcAcBcBdCdCdCdCdCdBdBdBdB
S14,super,F01,famous,B,71,554,TRUE,s011,dBdBdBdBdBdBdBdBdBdBcCcC,dAeBdAdAdCdCdCdCdCdCdCdCdCdCdCdBdBdB,cBcBcBcBdBdBdBdBdBdBdBcCcC,dBdBdBdBdBdBdBdBdBdBcCcCcC,eBeBeBdBdCdCdCcCcCcCcCcCcC,cAcAcAcAcAcCcCcCcCcCcCcCcCcCcCcB,dAdAdAdBdBdBdBdBdBdBdBdBdBdBdBdBdB,cCcBcBdBdBdBdBdBdBdBdBdB,cCcBcBcBcBcBdBdBdBdBdBdBdBdBdBdBdBdBdB,dCdCdCdCdBdBdBdBdCcCcCcCcBcBcBcBcC,dAdAdAcAcAcAcBcCcCcCcCcAcAcAcAcBcBcBcBcBdBeBeBeBcAcAcAcAcA,x,cBcBcBcBcBcBcBcCcCcCcCcCcAcAcAcA,dBdBdBdBdBdBdAdAdBdBdBdBdB,dBdBdBdBdBdBdBdBeBeBeBeBeBeB,cBcBcBcBcAcAcAcAcBcBdCdCdCdCdCdBdBdBdB
S15,super,F01,famous,B,15,760,TRUE,s012,cBcBcBcBcBcBcBcCcCcCcCcCcAcAcAcA,dAeBdAdAdCdCdCdCdCdCdCdCdCdCdCdBdBdB,cBcBcBcBdBdBdBdBdBdBdBcCcC,dBdBdBdBdBdBdBdBdBdBcCcCcC,eBeBeBdBdCdCdCcCcCcCcCcCcC,cAcAcAcAcAcCcCcCcCcCcCcCcCcCcCcB,dAdAdAdBdBdBdBdBdBdBdBdBdBdBdBdBdB,cCcBcBdBdBdBdBdBdBdBdBdB,cCcBcBcBcBcBdBdBdBdBdBdBdBdBdBdBdBdBdB,dCdCdCdCdBdBdBdBdCcCcCcCcBcBcBcBcC,dAdAdAcAcAcAcBcCcCcCcCcAcAcAcAcBcBcBcBcBdBeBeBeBcAcAcAcAcA,dBdBdBdBdBdBdBdBdBdBcCcC,x,dBdBdBdBdBdBdAdAdBdBdBdBdB,dBdBdBdBdBdBdBdBeBeBeBeBeBeB,cBcBcBcBcAcAcAcAcBcBdCdCdCdCdCdBdBdBdB
S17,super,F01,famous,B,8,1684,TRUE,s013,dBdBdBdBdBdBdAdAdBdBdBdBdB,dAeBdAdAdCdCdCdCdCdCdCdCdCdCdCdBdBdB,cBcBcBcBdBdBdBdBdBdBdBcCcC,dBdBdBdBdBdBdBdBdBdBcCcCcC,eBeBeBdBdCdCdCcCcCcCcCcCcC,cAcAcAcAcAcCcCcCcCcCcCcCcCcCcCcB,dAdAdAdBdBdBdBdBdBdBdBdBdBdBdBdBdB,cCcBcBdBdBdBdBdBdBdBdBdB,cCcBcBcBcBcBdBdBdBdBdBdBdBdBdBdBdBdBdB,dCdCdCdCdBdBdBdBdCcCcCcCcBcBcBcBcC,dAdAdAcAcAcAcBcCcCcCcCcAcAcAcAcBcBcBcBcBdBeBeBeBcAcAcAcAcA,dBdBdBdBdBdBdBdBdBdBcCcC,cBcBcBcBcBcBcBcCcCcCcCcCcAcAcAcA,x,dBdBdBdBdBdBdBdBeBeBeBeBeBeB,cBcBcBcBcAcAcAcAcBcBdCdCdCdCdCdBdBdBdB
S90,super,F01,famous,B,86,886,TRUE,s014,dBdBdBdBdBdBdBdBeBeBeBeBeBeB,dAeBdAdAdCdCdCdCdCdCdCdCdCdCdCdBdBdB,cBcBcBcBdBdBdBdBdBdBdBcCcC,dBdBdBdBdBdBdBdBdBdBcCcCcC,eBeBeBdBdCdCdCcCcCcCcCcCcC,cAcAcAcAcAcCcCcCcCcCcCcCcCcCcCcB,dAdAdAdBdBdBdBdBdBdBdBdBdBdBdBdBdB,cCcBcBdBdBdBdBdBdBdBdBdB,cCcBcBcBcBcBdBdBdBdBdBdBdBdBdBdBdBdBdB,dCdCdCdCdBdBdBdBdCcCcCcCcBcBcBcBcC,dAdAdAcAcAcAcBcCcCcCcCcAcAcAcAcBcBcBcBcBdBeBeBeBcAcAcAcAcA,dBdBdBdBdBdBdBdBdBdBcCcC,cBcBcBcBcBcBcBcCcCcCcCcCcAcAcAcA,dBdBdBdBdBdBdAdAdBdBdBdBdB,x,cBcBcBcBcAcAcAcAcBcBdCdCdCdCdCdBdBdBdB
S91,super,F01,famous,B,36,996,TRUE,s015,cBcBcBcBcAcAcAcAcBcBdCdCdCdCdCdBdBdBdB,dAeBdAdAdCdCdCdCdCdCdCdCdCdCdCdBdBdB,cBcBcBcBdBdBdBdBdBdBdBcCcC,dBdBdBdBdBdBdBdBdBdBcCcCcC,eBeBeBdBdCdCdCcCcCcCcCcCcC,cAcAcAcAcAcCcCcCcCcCcCcCcCcCcCcB,dAdAdAdBdBdBdBdBdBdBdBdBdBdBdBdBdB,cCcBcBdBdBdBdBdBdBdBdBdB,cCcBcBcBcBcBdBdBdBdBdBdBdBdBdBdBdBdBdB,dCdCdCdCdBdBdBdBdCcCcCcCcBcBcBcBcC,dAdAdAcAcAcAcBcCcCcCcCcAcAcAcAcBcBcBcBcBdBeBeBeBcAcAcAcAcA,dBdBdBdBdBdBdBdBdBdBcCcC,cBcBcBcBcBcBcBcCcCcCcCcCcAcAcAcA,dBdBdBdBdBdBdAdAdBdBdBdBdB,dBdBdBdBdBdBdBdBeBeBeBeBeBeB,x
S01,super,F01,famous,C,83,1176,TRUE,s001,cBcBcBcBdBdBdBdBdBdBdBdBdBdBdBdBdBdBdBdBcCcCcCcC,x,dAdAdAdBdBdBdBdBdBdBcBcB,cAcAcAcAdBdBdBdBdBcBdBdBcB,cAcAcAcAcAeBeBeBeBeBeBeBcCcCcCcCcC,cBcBcBcBcBcBcCcCcCcCcCcCcCcC,cAcAcAcAdBdBdBdBdBcCcCcC,dBdBdBdBdBdBdBdBdBdBdBdBdBdB,dBdBdBdBdBdBdBdBdBdBdBdBdBdBdBdBdBdBdB,dBdBdBdBdBdBdBdBcCcCcAcA,cBcBcBcAcAcAcAcAcCcCcCcCcCcCcCcCcAcAcAcAcAcAcA,cAcAcAdBdBdBdBdBdBdBdBcCcCcC,cBcBcBcBcBdBcAcAdBdBdBdB,cBcBcBcCcCcCcCcCcCcAcBcBcBcAcAcAcAeBeBeBeB,dBdBdBdBdBdBdBdBeBeBeBeBdBdBdBdB,dBdBdBdBdBdBdBdBdBdBdBdBeBeBeBeBdBdBdBdBdBdBdB
S02,super,F01,famous,C,57,587,TRUE,s002,dAdAdAdBdBdBdBdBdBdBcBcB,cBcBcBcBdBdBdBdBdBdBdBdBdBdBdBdBdBdBdBdBcCcCcCcC,x,cAcAcAcAdBdBdBdBdBcBdBdBcB,cAcAcAcAcAeBeBeBeBeBeBeBcCcCcCcCcC,cBcBcBcBcBcBcCcCcCcCcCcCcCcC,cAcAcAcAdBdBdBdBdBcCcCcC,dBdBdBdBdBdBdBdBdBdBdBdBdBdB,dBdBdBdBdBdBdBdBdBdBdBdBdBdBdBdBdBdBdB,dBdBdBdBdBdBdBdBcCcCcAcA,cBcBcBcAcAcAcAcAcCcCcCcCcCcCcCcCcAcAcAcAcAcAcA,cAcAcAdBdBdBdBdBdBdBdBcCcCcC,cBcBcBcBcBdBcAcAdBdBdBdB,cBcBcBcCcCcCcCcCcCcAcBcBcBcAcAcAcAeBeBeBeB,dBdBdBdBdBdBdBdBeBeBeBeBdBdBdBdB,dBdBdBdBdBdBdBdBdBdBdBdBeBeBeBeBdBdBdBdBdBdBdB
S03,super,F01,famous,C,112,806,TRUE,s003,cAcAcAcAdBdBdBdBdBcBdBdBcB,cBcBcBcBdBdBdBdBdBdBdBdBdBdBdBdBdBdBdBdBcCcCcCcC,dAdAdAdBdBdBdBdBdBdBcBcB,x,cAcAcAcAcAeBeBeBeBeBeBeBcCcCcCcCcC,cBcBcBcBcBcBcCcCcCcCcCcCcCcC,cAcAcAcAdBdBdBdBdBcCcCcC,dBdBdBdBdBdBdBdBdBdBdBdBdBdB,dBdBdBdBdBdBdBdBdBdBdBdBdBdBdBdBdBdBdB,dBdBdBdBdBdBdBdBcCcCcAcA,cBcBcBcAcAcAcAcAcCcCcCcCcCcCcCcCcAcAcAcAcAcAcA,cAcAcAdBdBdBdBdBdBdBdBcCcCcC,cBcBcBcBcBdBcAcAdBdBdBdB,cBcBcBcCcCcCcCcCcCcAcBcBcBcAcAcAcAeBeBeBeB,dBdBdBdBdBdBdBdBeBeBeBeBdBdBdBdB,dBdBdBdBdBdBdBdBdBdBdBdBeBeBeBeBdBdBdBdBdBdBdB
S04,super,F01,famous,C,65,1044,TRUE,s004,cAcAcAcAcAeBeBeBeBeBeBeBcCcCcCcCcC,cBcBcBcBdBdBdBdBdBdBdBdBdBdBdBdBdBdBdBdBcCcCcCcC,dAdAdAdBdBdBdBdBdBdBcBcB,cAcAcAcAdBdBdBdBdBcBdBdBcB,x,cBcBcBcBcBcBcCcCcCcCcCcCcCcC,cAcAcAcAdBdBdBdBdBcCcCcC,dBdBdBdBdBdBdBdBdBdBdBdBdBdB,dBdBdBdBdBdBdBdBdBdBdBdBdBdBdBdBdBdBdB,dBdBdBdBdBdBdBdBcCcCcAcA,cBcBcBcAcAcAcAcAcCcCcCcCcCcCcCcCcAcAcAcAcAcAcA,cAcAcAdBdBdBdBdBdBdBdBcCcCcC,cBcBcBcBcBdBcAcAdBdBdBdB,cBcBcBcCcCcCcCcCcCcAcBcBcBcAcAcAcAeBeBeBeB,dBdBdBdBdBdBdBdBeBeBeBeBdBdBdBdB,dBdBdBdBdBdBdBdBdBdBdBdBeBeBeBeBdBdBdBdBdBdBdB
S07,super,F01,famous,C,91,892,TRUE,s005,cBcBcBcBcBcBcCcCcCcCcCcCcCcC,cBcBcBcBdBdBdBdBdBdBdBdBdBdBdBdBdBdBdBdBcCcCcCcC,dAdAdAdBdBdBdBdBdBdBcBcB,cAcAcAcAdBdBdBdBdBcBdBdBcB,cAcAcAcAcAeBeBeBeBeBeBeBcCcCcCcCcC,x,cAcAcAcAdBdBdBdBdBcCcCcC,dBdBdBdBdBdBdBdBdBdBdBdBdBdB,dBdBdBdBdBdBdBdBdBdBdBdBdBdBdBdBdBdBdB,dBdBdBdBdBdBdBdBcCcCcAcA,cBcBcBcAcAcAcAcAcCcCcCcCcCcCcCcCcAcAcAcAcAcAcA,cAcAcAdBdBdBdBdBdBdBdBcCcCcC,cBcBcBcBcBdBcAcAdBdBdBdB,cBcBcBcCcCcCcCcCcCcAcBcBcBcAcAcAcAeBeBeBeB,dBdBdBdBdBdBdBdBeBeBeBeBdBdBdBdB,dBdBdBdBdBdBdBdBdBdBdBdBeBeBeBeBdBdBdBdBdBdBdB
S09,super,F01,famous,C,145,704,TRUE,s006,cAcAcAcAdBdBdBdBdBcCcCcC,cBcBcBcBdBdBdBdBdBdBdBdBdBdBdBdBdBdBdBdBcCcCcCcC,dAdAdAdBdBdBdBdBdBdBcBcB,cAcAcAcAdBdBdBdBdBcBdBdBcB,cAcAcAcAcAeBeBeBeBeBeBeBcCcCcCcCcC,cBcBcBcBcBcBcCcCcCcCcCcCcCcC,x,dBdBdBdBdBdBdBdBdBdBdBdBdBdB,dBdBdBdBdBdBdBdBdBdBdBdBdBdBdBdBdBdBdB,dBdBdBdBdBdBdBdBcCcCcAcA,cBcBcBcAcAcAcAcAcCcCcCcCcCcCcCcCcAcAcAcAcAcAcA,cAcAcAdBdBdBdBdBdBdBdBcCcCcC,cBcBcBcBcBdBcAcAdBdBdBdB,cBcBcBcCcCcCcCcCcCcAcBcBcBcAcAcAcAeBeBeBeB,dBdBdBdBdBdBdBdBeBeBeBeBdBdBdBdB,dBdBdBdBdBdBdBdBdBdBdBdBeBeBeBeBdBdBdBdBdBdBdB
S10,super,F01,famous,C,101,674,TRUE,s007,dBdBdBdBdBdBdBdBdBdBdBdBdBdB,cBcBcBcBdBdBdBdBdBdBdBdBdBdBdBdBdBdBdBdBcCcCcCcC,dAdAdAdBdBdBdBdBdBdBcBcB,cAcAcAcAdBdBdBdBdBcBdBdBcB,cAcAcAcAcAeBeBeBeBeBeBeBcCcCcCcCcC,cBcBcBcBcBcBcCcCcCcCcCcCcCcC,cAcAcAcAdBdBdBdBdBcCcCcC,x,dBdBdBdBdBdBdBdBdBdBdBdBdBdBdBdBdBdBdB,dBdBdBdBdBdBdBdBcCcCcAcA,cBcBcBcAcAcAcAcAcCcCcCcCcCcCcCcCcAcAcAcAcAcAcA,cAcAcAdBdBdBdBdBdBdBdBcCcCcC,cBcBcBcBcBdBcAcAdBdBdBdB,cBcBcBcCcCcCcCcCcCcAcBcBcBcAcAcAcAeBeBeBeB,dBdBdBdBdBdBdBdBeBeBeBeBdBdBdBdB,dBdBdBdBdBdBdBdBdBdBdBdBeBeBeBeBdBdBdBdBdBdBdB
S11,super,F01,famous,C,21,913,TRUE,s008,dBdBdBdBdBdBdBdBdBdBdBdBdBdBdBdBdBdBdB,cBcBcBcBdBdBdBdBdBdBdBdBdBdBdBdBdBdBdBdBcCcCcCcC,dAdAdAdBdBdBdBdBdBdBcBcB,cAcAcAcAdBdBdBdBdBcBdBdBcB,cAcAcAcAcAeBeBeBeBeBeBeBcCcCcCcCcC,cBcBcBcBcBcBcCcCcCcCcCcCcCcC,cAcAcAcAdBdBdBdBdBcCcCcC,dBdBdBdBdBdBdBdBdBdBdBdBdBdB,x,dBdBdBdBdBdBdBdBcCcCcAcA,cBcBcBcAcAcAcAcAcCcCcCcCcCcCcCcCcAcAcAcAcAcAcA,cAcAcAdBdBdBdBdBdBdBdBcCcCcC,cBcBcBcBcBdBcAcAdBdBdBdB,cBcBcBcCcCcCcCcCcCcAcBcBcBcAcAcAcAeBeBeBeB,dBdBdBdBdBdBdBdBeBeBeBeBdBdBdBdB,dBdBdBdBdBdBdBdBdBdBdBdBeBeBeBeBdBdBdBdBdBdBdB
S12,super,F01,famous,C,116,594,TRUE,s009,dBdBdBdBdBdBdBdBcCcCcAcA,cBcBcBcBdBdBdBdBdBdBdBdBdBdBdBdBdBdBdBdBcCcCcCcC,dAdAdAdBdBdBdBdBdBdBcBcB,cAcAcAcAdBdBdBdBdBcBdBdBcB,cAcAcAcAcAeBeBeBeBeBeBeBcCcCcCcCcC,cBcBcBcBcBcBcCcCcCcCcCcCcCcC,cAcAcAcAdBdBdBdBdBcCcCcC,dBdBdBdBdBdBdBdBdBdBdBdBdBdB,dBdBdBdBdBdBdBdBdBdBdBdBdBdBdBdBdBdBdB,x,cBcBcBcAcAcAcAcAcCcCcCcCcCcCcCcCcAcAcAcAcAcAcA,cAcAcAdBdBdBdBdBdBdBdBcCcCcC,cBcBcBcBcBdBcAcAdBdBdBdB,cBcBcBcCcCcCcCcCcCcAcBcBcBcAcAcAcAeBeBeBeB,dBdBdBdBdBdBdBdBeBeBeBeBdBdBdBdB,dBdBdBdBdBdBdBdBdBdBdBdBeBeBeBeBdBdBdBdBdBdBdB
S13,super,F01,famous,C,116,1189,TRUE,s010,cBcBcBcAcAcAcAcAcCcCcCcCcCcCcCcCcAcAcAcAcAcAcA,cBcBcBcBdBdBdBdBdBdBdBdBdBdBdBdBdBdBdBdBcCcCcCcC,dAdAdAdBdBdBdBdBdBdBcBcB,cAcAcAcAdBdBdBdBdBcBdBdBcB,cAcAcAcAcAeBeBeBeBeBeBeBcCcCcCcCcC,cBcBcBcBcBcBcCcCcCcCcCcCcCcC,cAcAcAcAdBdBdBdBdBcCcCcC,dBdBdBdBdBdBdBdBdBdBdBdBdBdB,dBdBdBdBdBdBdBdBdBdBdBdBdBdBdBdBdBdBdB,dBdBdBdBdBdBdBdBcCcCcAcA,x,cAcAcAdBdBdBdBdBdBdBdBcCcCcC,cBcBcBcBcBdBcAcAdBdBdBdB,cBcBcBcCcCcCcCcCcCcAcBcBcBcAcAcAcAeBeBeBeB,dBdBdBdBdBdBdBdBeBeBeBeBdBdBdBdB,dBdBdBdBdBdBdBdBdBdBdBdBeBeBeBeBdBdBdBdBdBdBdB
S14,super,F01,famous,C,60,652,TRUE,s011,cAcAcAdBdBdBdBdBdBdBdBcCcCcC,cBcBcBcBdBdBdBdBdBdBdBdBdBdBdBdBdBdBdBdBcCcCcCcC,dAdAdAdBdBdBdBdBdBdBcBcB,cAcAcAcAdBdBdBdBdBcBdBdBcB,cAcAcAcAcAeBeBeBeBeBeBeBcCcCcCcCcC,cBcBcBcBcBcBcCcCcCcCcCcCcCcC,cAcAcAcAdBdBdBdBdBcCcCcC,dBdBdBdBdBdBdBdBdBdBdBdBdBdB,dBdBdBdBdBdBdBdBdBdBdBdBdBdBdBdBdBdBdB,dBdBdBdBdBdBdBdBcCcCcAcA,cBcBcBcAcAcAcAcAcCcCcCcCcCcCcCcCcAcAcAcAcAcAcA,x,cBcBcBcBcBdBcAcAdBdBdBdB,cBcBcBcCcCcCcCcCcCcAcBcBcBcAcAcAcAeBeBeBeB,dBdBdBdBdBdBdBdBeBeBeBeBdBdBdBdB,dBdBdBdBdBdBdBdBdBdBdBdBeBeBeBeBdBdBdBdBdBdBdB
S15,super,F01,famous,C,41,756,TRUE,s012,cBcBcBcBcBdBcAcAdBdBdBdB,cBcBcBcBdBdBdBdBdBdBdBdBdBdBdBdBdBdBdBdBcCcCcCcC,dAdAdAdBdBdBdBdBdBdBcBcB,cAcAcAcAdBdBdBdBdBcBdBdBcB,cAcAcAcAcAeBeBeBeBeBeBeBcCcCcCcCcC,cBcBcBcBcBcBcCcCcCcCcCcCcCcC,cAcAcAcAdBdBdBdBdBcCcCcC,dBdBdBdBdBdBdBdBdBdBdBdBdBdB,dBdBdBdBdBdBdBdBdBdBdBdBdBdBdBdBdBdBdB,dBdBdBdBdBdBdBdBcCcCcAcA,cBcBcBcAcAcAcAcAcCcCcCcCcCcCcCcCcAcAcAcAcAcAcA,cAcAcAdBdBdBdBdBdBdBdBcCcCcC,x,cBcBcBcCcCcCcCcCcCcAcBcBcBcAcAcAcAeBeBeBeB,dBdBdBdBdBdBdBdBeBeBeBeBdBdBdBdB,dBdBdBdBdBdBdBdBdBdBdBdBeBeBeBeBdBdBdBdBdBdBdB
S17,super,F01,famous,C,160,1280,TRUE,s013,cBcBcBcCcCcCcCcCcCcAcBcBcBcAcAcAcAeBeBeBeB,cBcBcBcBdBdBdBdBdBdBdBdBdBdBdBdBdBdBdBdBcCcCcCcC,dAdAdAdBdBdBdBdBdBdBcBcB,cAcAcAcAdBdBdBdBdBcBdBdBcB,cAcAcAcAcAeBeBeBeBeBeBeBcCcCcCcCcC,cBcBcBcBcBcBcCcCcCcCcCcCcCcC,cAcAcAcAdBdBdBdBdBcCcCcC,dBdBdBdBdBdBdBdBdBdBdBdBdBdB,dBdBdBdBdBdBdBdBdBdBdBdBdBdBdBdBdBdBdB,dBdBdBdBdBdBdBdBcCcCcAcA,cBcBcBcAcAcAcAcAcCcCcCcCcCcCcCcCcAcAcAcAcAcAcA,cAcAcAdBdBdBdBdBdBdBdBcCcCcC,cBcBcBcBcBdBcAcAdBdBdBdB,x,dBdBdBdBdBdBdBdBeBeBeBeBdBdBdBdB,dBdBdBdBdBdBdBdBdBdBdBdBeBeBeBeBdBdBdBdBdBdBdB
S90,super,F01,famous,C,45,951,TRUE,s014,dBdBdBdBdBdBdBdBeBeBeBeBdBdBdBdB,cBcBcBcBdBdBdBdBdBdBdBdBdBdBdBdBdBdBdBdBcCcCcCcC,dAdAdAdBdBdBdBdBdBdBcBcB,cAcAcAcAdBdBdBdBdBcBdBdBcB,cAcAcAcAcAeBeBeBeBeBeBeBcCcCcCcCcC,cBcBcBcBcBcBcCcCcCcCcCcCcCcC,cAcAcAcAdBdBdBdBdBcCcCcC,dBdBdBdBdBdBdBdBdBdBdBdBdBdB,dBdBdBdBdBdBdBdBdBdBdBdBdBdBdBdBdBdBdB,dBdBdBdBdBdBdBdBcCcCcAcA,cBcBcBcAcAcAcAcAcCcCcCcCcCcCcCcCcAcAcAcAcAcAcA,cAcAcAdBdBdBdBdBdBdBdBcCcCcC,cBcBcBcBcBdBcAcAdBdBdBdB,cBcBcBcCcCcCcCcCcCcAcBcBcBcAcAcAcAeBeBeBeB,x,dBdBdBdBdBdBdBdBdBdBdBdBeBeBeBeBdBdBdBdBdBdBdB
S91,super,F01,famous,C,45,1314,TRUE,s015,dBdBdBdBdBdBdBdBdBdBdBdBeBeBeBeBdBdBdBdBdBdBdB,cBcBcBcBdBdBdBdBdBdBdBdBdBdBdBdBdBdBdBdBcCcCcCcC,dAdAdAdBdBdBdBdBdBdBcBcB,cAcAcAcAdBdBdBdBdBcBdBdBcB,cAcAcAcAcAeBeBeBeBeBeBeBcCcCcCcCcC,cBcBcBcBcBcBcCcCcCcCcCcCcCcC,cAcAcAcAdBdBdBdBdBcCcCcC,dBdBdBdBdBdBdBdBdBdBdBdBdBdB,dBdBdBdBdBdBdBdBdBdBdBdBdBdBdBdBdBdBdB,dBdBdBdBdBdBdBdBcCcCcAcA,cBcBcBcAcAcAcAcAcCcCcCcCcCcCcCcCcAcAcAcAcAcAcA,cAcAcAdBdBdBdBdBdBdBdBcCcCcC,cBcBcBcBcBdBcAcAdBdBdBdB,cBcBcBcCcCcCcCcCcCcAcBcBcBcAcAcAcAeBeBeBeB,dBdBdBdBdBdBdBdBeBeBeBeBdBdBdBdB,x
S01,super,F01,famous,D,89,1316,TRUE,s001,dBdBdBdBdBdBdBdBdBdBdBdBdBdBdBdBdBdBcCcCcCcCcCcCdBcBcC,x,dAdBdBdBdBdBeBeBeBeBeBdBdBdBdB,eBeBeBeBdBdBdBdBdBdBdBdBdBdB,fBfBfBeBeBeBeBdBdBdBdBdBdBdBdBdBdBdBdBcCcC,cAcAcAcAcAcBcBcBcCcCcCcCcCcCdBdBdBdBdBdBcA,dAdAdBdBdBdBdBdBdBdBdBdBdBdB,dBdBdBdBdBdBdBdBdBdBdBdBdBdBdB,dBdBdBdBdBdBdBdBdBdBeBeBeBeBeBdBdBdBdBdCdCdCdCdCdCdCdCcCeBeBeBeBeBeBeBeBeBeBdB,dBdBdBdBcCcCcCcCcCcCcCcCcC,bBbBbBcBcBcBcBcCcCcCcCdBdBdBdBcAcAcAcAcAcCcCcCcCcCcC,dAcAcAcAcAcAdBdBdBdBdBdBdBcCcCcC,dBdBdBdBdBdBdBdBdBdBdBcCcCdBdBdC,dAdAdAcCcCcCcCcCdBdBdBdBdBcCcCdBdBdBcCeBeBeB,dBdBdBdBdBdBdBdBdBeBeBeBeB,dAdAdBdBdBcBcBcBcBcBcCdBdBcCcAcAcAcAdBdBdB
S02,super,F01,famous,D,19,739,TRUE,s002,dAdBdBdBdBdBeBeBeBeBeBdBdBdBdB,dBdBdBdBdBdBdBdBdBdBdBdBdBdBdBdBdBdBcCcCcCcCcCcCdBcBcC,x,eBeBeBeBdBdBdBdBdBdBdBdBdBdB,fBfBfBeBeBeBeBdBdBdBdBdBdBdBdBdBdBdBdBcCcC,cAcAcAcAcAcBcBcBcCcCcCcCcCcCdBdBdBdBdBdBcA,dAdAdBdBdBdBdBdBdBdBdBdBdBdB,dBdBdBdBdBdBdBdBdBdBdBdBdBdBdB,dBdBdBdBdBdBdBdBdBdBeBeBeBeBeBdBdBdBdBdCdCdCdCdCdCdCdCcCeBeBeBeBeBeBeBeBeBeBdB,dBdBdBdBcCcCcCcCcCcCcCcCcC,bBbBbBcBcBcBcBcCcCcCcCdBdBdBdBcAcAcAcAcAcCcCcCcCcCcC,dAcAcAcAcAcAdBdBdBdBdBdBdBcCcCcC,dBdBdBdBdBdBdBdBdBdBdBcCcCdBdBdC,dAdAdAcCcCcCcCcCdBdBdBdBdBcCcCdBdBdBcCeBeBeB,dBdBdBdBdBdBdBdBdBeBeBeBeB,dAdAdBdBdBcBcBcBcBcBcCdBdBcCcAcAcAcAdBdBdB
S03,super,F01,famous,D,5,848,TRUE,s003,eBeBeBeBdBdBdBdBdBdBdBdBdBdB,dBdBdBdBdBdBdBdBdBdBdBdBdBdBdBdBdBdBcCcCcCcCcCcCdBcBcC,dAdBdBdBdBdBeBeBeBeBeBdBdBdBdB,x,fBfBfBeBeBeBeBdBdBdBdBdBdBdBdBdBdBdBdBcCcC,cAcAcAcAcAcBcBcBcCcCcCcCcCcCdBdBdBdBdBdBcA,dAdAdBdBdBdBdBdBdBdBdBdBdBdB,dBdBdBdBdBdBdBdBdBdBdBdBdBdBdB,dBdBdBdBdBdBdBdBdBdBeBeBeBeBeBdBdBdBdBdCdCdCdCdCdCdCdCcCeBeBeBeBeBeBeBeBeBeBdB,dBdBdBdBcCcCcCcCcCcCcCcCcC,bBbBbBcBcBcBcBcCcCcCcCdBdBdBdBcAcAcAcAcAcCcCcCcCcCcC,dAcAcAcAcAcAdBdBdBdBdBdBdBcCcCcC,dBdBdBdBdBdBdBdBdBdBdBcCcCdBdBdC,dAdAdAcCcCcCcCcCdBdBdBdBdBcCcCdBdBdBcCeBeBeB,dBdBdBdBdBdBdBdBdBeBeBeBeB,dAdAdBdBdBcBcBcBcBcBcCdBdBcCcAcAcAcAdBdBdB
S04,super,F01,famous,D,39,1399,TRUE,s004,fBfBfBeBeBeBeBdBdBdBdBdBdBdBdBdBdBdBdBcCcC,dBdBdBdBdBdBdBdBdBdBdBdBdBdBdBdBdBdBcCcCcCcCcCcCdBcBcC,dAdBdBdBdBdBeBeBeBeBeBdBdBdBdB,eBeBeBeBdBdBdBdBdBdBdBdBdBdB,x,cAcAcAcAcAcBcBcBcCcCcCcCcCcCdBdBdBdBdBdBcA,dAdAdBdBdBdBdBdBdBdBdBdBdBdB,dBdBdBdBdBdBdBdBdBdBdBdBdBdBdB,dBdBdBdBdBdBdBdBdBdBeBeBeBeBeBdBdBdBdBdCdCdCdCdCdCdCdCcCeBeBeBeBeBeBeBeBeBeBdB,dBdBdBdBcCcCcCcCcCcCcCcCcC,bBbBbBcBcBcBcBcCcCcCcCdBdBdBdBcAcAcAcAcAcCcCcCcCcCcC,dAcAcAcAcAcAdBdBdBdBdBdBdBcCcCcC,dBdBdBdBdBdBdBdBdBdBdBcCcCdBdBdC,dAdAdAcCcCcCcCcCdBdBdBdBdBcCcCdBdBdBcCeBeBeB,dBdBdBdBdBdBdBdBdBeBeBeBeB,dAdAdBdBdBcBcBcBcBcBcCdBdBcCcAcAcAcAdBdBdB
S07,super,F01,famous,D,18,1215,TRUE,s005,cAcAcAcAcAcBcBcBcCcCcCcCcCcCdBdBdBdBdBdBcA,dBdBdBdBdBdBdBdBdBdBdBdBdBdBdBdBdBdBcCcCcCcCcCcCdBcBcC,dAdBdBdBdBdBeBeBeBeBeBdBdBdBdB,eBeBeBeBdBdBdBdBdBdBdBdBdBdB,fBfBfBeBeBeBeBdBdBdBdBdBdBdBdBdBdBdBdBcCcC,x,dAdAdBdBdBdBdBdBdBdBdBdBdBdB,dBdBdBdBdBdBdBdBdBdBdBdBdBdBdB,dBdBdBdBdBdBdBdBdBdBeBeBeBeBeBdBdBdBdBdCdCdCdCdCdCdCdCcCeBeBeBeBeBeBeBeBeBeBdB,dBdBdBdBcCcCcCcCcCcCcCcCcC,bBbBbBcBcBcBcBcCcCcCcCdBdBdBdBcAcAcAcAcAcCcCcCcCcCcC,dAcAcAcAcAcAdBdBdBdBdBdBdBcCcCcC,dBdBdBdBdBdBdBdBdBdBdBcCcCdBdBdC,dAdAdAcCcCcCcCcCdBdBdBdBdBcCcCdBdBdBcCeBeBeB,dBdBdBdBdBdBdBdBdBeBeBeBeB,dAdAdBdBdBcBcBcBcBcBcCdBdBcCcAcAcAcAdBdBdB
S09,super,F01,famous,D,97,836,TRUE,s006,dAdAdBdBdBdBdBdBdBdBdBdBdBdB,dBdBdBdBdBdBdBdBdBdBdBdBdBdBdBdBdBdBcCcCcCcCcCcCdBcBcC,dAdBdBdBdBdBeBeBeBeBeBdBdBdBdB,eBeBeBeBdBdBdBdBdBdBdBdBdBdB,fBfBfBeBeBeBeBdBdBdBdBdBdBdBdBdBdBdBdBcCcC,cAcAcAcAcAcBcBcBcCcCcCcCcCcCdBdBdBdBdBdBcA,x,dBdBdBdBdBdBdBdBdBdBdBdBdBdBdB,dBdBdBdBdBdBdBdBdBdBeBeBeBeBeBdBdBdBdBdCdCdCdCdCdCdCdCcCeBeBeBeBeBeBeBeBeBeBdB,dBdBdBdBcCcCcCcCcCcCcCcCcC,bBbBbBcBcBcBcBcCcCcCcCdBdBdBdBcAcAcAcAcAcCcCcCcCcCcC,dAcAcAcAcAcAdBdBdBdBdBdBdBcCcCcC,dBdBdBdBdBdBdBdBdBdBdBcCcCdBdBdC,dAdAdAcCcCcCcCcCdBdBdBdBdBcCcCdBdBdBcCeBeBeB,dBdBdBdBdBdBdBdBdBeBeBeBeB,dAdAdBdBdBcBcBcBcBcBcCdBdBcCcAcAcAcAdBdBdB
S10,super,F01,famous,D,152,706,TRUE,s007,dBdBdBdBdBdBdBdBdBdBdBdBdBdBdB,dBdBdBdBdBdBdBdBdBdBdBdBdBdBdBdBdBdBcCcCcCcCcCcCdBcBcC,dAdBdBdBdBdBeBeBeBeBeBdBdBdBdB,eBeBeBeBdBdBdBdBdBdBdBdBdBdB,fBfBfBeBeBeBeBdBdBdBdBdBdBdBdBdBdBdBdBcCcC,cAcAcAcAcAcBcBcBcCcCcCcCcCcCdBdBdBdBdBdBcA,dAdAdBdBdBdBdBdBdBdBdBdBdBdB,x,dBdBdBdBdBdBdBdBdBdBeBeBeBeBeBdBdBdBdBdCdCdCdCdCdCdCdCcCeBeBeBeBeBeBeBeBeBeBdB,dBdBdBdBcCcCcCcCcCcCcCcCcC,bBbBbBcBcBcBcBcCcCcCcCdBdBdBdBcAcAcAcAcAcCcCcCcCcCcC,dAcAcAcAcAcAdBdBdBdBdBdBdBcCcCcC,dBdBdBdBdBdBdBdBdBdBdBcCcCdBdBdC,dAdAdAcCcCcCcCcCdBdBdBdBdBcCcCdBdBdBcCeBeBeB,dBdBdBdBdBdBdBdBdBeBeBeBeB,dAdAdBdBdBcBcBcBcBcBcCdBdBcCcAcAcAcAdBdBdB
S11,super,F01,famous,D,2,2574,TRUE,s008,dBdBdBdBdBdBdBdBdBdBeBeBeBeBeBdBdBdBdBdCdCdCdCdCdCdCdCcCeBeBeBeBeBeBeBeBeBeBdB,dBdBdBdBdBdBdBdBdBdBdBdBdBdBdBdBdBdBcCcCcCcCcCcCdBcBcC,dAdBdBdBdBdBeBeBeBeBeBdBdBdBdB,eBeBeBeBdBdBdBdBdBdBdBdBdBdB,fBfBfBeBeBeBeBdBdBdBdBdBdBdBdBdBdBdBdBcCcC,cAcAcAcAcAcBcBcBcCcCcCcCcCcCdBdBdBdBdBdBcA,dAdAdBdBdBdBdBdBdBdBdBdBdBdB,dBdBdBdBdBdBdBdBdBdBdBdBdBdBdB,x,dBdBdBdBcCcCcCcCcCcCcCcCcC,bBbBbBcBcBcBcBcCcCcCcCdBdBdBdBcAcAcAcAcAcCcCcCcCcCcC,dAcAcAcAcAcAdBdBdBdBdBdBdBcCcCcC,dBdBdBdBdBdBdBdBdBdBdBcCcCdBdBdC,dAdAdAcCcCcCcCcCdBdBdBdBdBcCcCdBdBdBcCeBeBeB,dBdBdBdBdBdBdBdBdBeBeBeBeB,dAdAdBdBdBcBcBcBcBcBcCdBdBcCcAcAcAcAdBdBdB
S12,super,F01,famous,D,95,624,TRUE,s009,dBdBdBdBcCcCcCcCcCcCcCcCcC,dBdBdBdBdBdBdBdBdBdBdBdBdBdBdBdBdBdBcCcCcCcCcCcCdBcBcC,dAdBdBdBdBdBeBeBeBeBeBdBdBdBdB,eBeBeBeBdBdBdBdBdBdBdBdBdBdB,fBfBfBeBeBeBeBdBdBdBdBdBdBdBdBdBdBdBdBcCcC,cAcAcAcAcAcBcBcBcCcCcCcCcCcCdBdBdBdBdBdBcA,dAdAdBdBdBdBdBdBdBdBdBdBdBdB,dBdBdBdBdBdBdBdBdBdBdBdBdBdBdB,dBdBdBdBdBdBdBdBdBdBeBeBeBeBeBdBdBdBdBdCdCdCdCdCdCdCdCcCeBeBeBeBeBeBeBeBeBeBdB,x,bBbBbBcBcBcBcBcCcCcCcCdBdBdBdBcAcAcAcAcAcCcCcCcCcCcC,dAcAcAcAcAcAdBdBdBdBdBdBdBcCcCcC,dBdBdBdBdBdBdBdBdBdBdBcCcCdBdBdC,dAdAdAcCcCcCcCcCdBdBdBdBdBcCcCdBdBdBcCeBeBeB,dBdBdBdBdBdBdBdBdBeBeBeBeB,dAdAdBdBdBcBcBcBcBcBcCdBdBcCcAcAcAcAdBdBdB
S13,super,F01,famous,D,134,1253,TRUE,s010,bBbBbBcBcBcBcBcCcCcCcCdBdBdBdBcAcAcAcAcAcCcCcCcCcCcC,dBdBdBdBdBdBdBdBdBdBdBdBdBdBdBdBdBdBcCcCcCcCcCcCdBcBcC,dAdBdBdBdBdBeBeBeBeBeBdBdBdBdB,eBeBeBeBdBdBdBdBdBdBdBdBdBdB,fBfBfBeBeBeBeBdBdBdBdBdBdBdBdBdBdBdBdBcCcC,cAcAcAcAcAcBcBcBcCcCcCcCcCcCdBdBdBdBdBdBcA,dAdAdBdBdBdBdBdBdBdBdBdBdBdB,dBdBdBdBdBdBdBdBdBdBdBdBdBdBdB,dBdBdBdBdBdBdBdBdBdBeBeBeBeBeBdBdBdBdBdCdCdCdCdCdCdCdCcCeBeBeBeBeBeBeBeBeBeBdB,dBdBdBdBcCcCcCcCcCcCcCcCcC,x,dAcAcAcAcAcAdBdBdBdBdBdBdBcCcCcC,dBdBdBdBdBdBdBdBdBdBdBcCcCdBdBdC,dAdAdAcCcCcCcCcCdBdBdBdBdBcCcCdBdBdBcCeBeBeB,dBdBdBdBdBdBdBdBdBeBeBeBeB,dAdAdBdBdBcBcBcBcBcBcCdBdBcCcAcAcAcAdBdBdB
S14,super,F01,famous,D,8,906,TRUE,s011,dAcAcAcAcAcAdBdBdBdBdBdBdBcCcCcC,dBdBdBdBdBdBdBdBdBdBdBdBdBdBdBdBdBdBcCcCcCcCcCcCdBcBcC,dAdBdBdBdBdBeBeBeBeBeBdBdBdBdB,eBeBeBeBdBdBdBdBdBdBdBdBdBdB,fBfBfBeBeBeBeBdBdBdBdBdBdBdBdBdBdBdBdBcCcC,cAcAcAcAcAcBcBcBcCcCcCcCcCcCdBdBdBdBdBdBcA,dAdAdBdBdBdBdBdBdBdBdBdBdBdB,dBdBdBdBdBdBdBdBdBdBdBdBdBdBdB,dBdBdBdBdBdBdBdBdBdBeBeBeBeBeBdBdBdBdBdCdCdCdCdCdCdCdCcCeBeBeBeBeBeBeBeBeBeBdB,dBdBdBdBcCcCcCcCcCcCcCcCcC,bBbBbBcBcBcBcBcCcCcCcCdBdBdBdBcAcAcAcAcAcCcCcCcCcCcC,x,dBdBdBdBdBdBdBdBdBdBdBcCcCdBdBdC,dAdAdAcCcCcCcCcCdBdBdBdBdBcCcCdBdBdBcCeBeBeB,dBdBdBdBdBdBdBdBdBeBeBeBeB,dAdAdBdBdBcBcBcBcBcBcCdBdBcCcAcAcAcAdBdBdB
S15,super,F01,famous,D,138,907,TRUE,s012,dBdBdBdBdBdBdBdBdBdBdBcCcCdBdBdC,dBdBdBdBdBdBdBdBdBdBdBdBdBdBdBdBdBdBcCcCcCcCcCcCdBcBcC,dAdBdBdBdBdBeBeBeBeBeBdBdBdBdB,eBeBeBeBdBdBdBdBdBdBdBdBdBdB,fBfBfBeBeBeBeBdBdBdBdBdBdBdBdBdBdBdBdBcCcC,cAcAcAcAcAcBcBcBcCcCcCcCcCcCdBdBdBdBdBdBcA,dAdAdBdBdBdBdBdBdBdBdBdBdBdB,dBdBdBdBdBdBdBdBdBdBdBdBdBdBdB,dBdBdBdBdBdBdBdBdBdBeBeBeBeBeBdBdBdBdBdCdCdCdCdCdCdCdCcCeBeBeBeBeBeBeBeBeBeBdB,dBdBdBdBcCcCcCcCcCcCcCcCcC,bBbBbBcBcBcBcBcCcCcCcCdBdBdBdBcAcAcAcAcAcCcCcCcCcCcC,dAcAcAcAcAcAdBdBdBdBdBdBdBcCcCcC,x,dAdAdAcCcCcCcCcCdBdBdBdBdBcCcCdBdBdBcCeBeBeB,dBdBdBdBdBdBdBdBdBeBeBeBeB,dAdAdBdBdBcBcBcBcBcBcCdBdBcCcAcAcAcAdBdBdB
S17,super,F01,famous,D,98,1399,TRUE,s013,dAdAdAcCcCcCcCcCdBdBdBdBdBcCcCdBdBdBcCeBeBeB,dBdBdBdBdBdBdBdBdBdBdBdBdBdBdBdBdBdBcCcCcCcCcCcCdBcBcC,dAdBdBdBdBdBeBeBeBeBeBdBdBdBdB,eBeBeBeBdBdBdBdBdBdBdBdBdBdB,fBfBfBeBeBeBeBdBdBdBdBdBdBdBdBdBdBdBdBcCcC,cAcAcAcAcAcBcBcBcCcCcCcCcCcCdBdBdBdBdBdBcA,dAdAdBdBdBdBdBdBdBdBdBdBdBdB,dBdBdBdBdBdBdBdBdBdBdBdBdBdBdB,dBdBdBdBdBdBdBdBdBdBeBeBeBeBeBdBdBdBdBdCdCdCdCdCdCdCdCcCeBeBeBeBeBeBeBeBeBeBdB,dBdBdBdBcCcCcCcCcCcCcCcCcC,bBbBbBcBcBcBcBcCcCcCcCdBdBdBdBcAcAcAcAcAcCcCcCcCcCcC,dAcAcAcAcAcAdBdBdBdBdBdBdBcCcCcC,dBdBdBdBdBdBdBdBdBdBdBcCcCdBdBdC,x,dBdBdBdBdBdBdBdBdBeBeBeBeB,dAdAdBdBdBcBcBcBcBcBcCdBdBcCcAcAcAcAdBdBdB
S90,super,F01,famous,D,127,756,TRUE,s014,dBdBdBdBdBdBdBdBdBeBeBeBeB,dBdBdBdBdBdBdBdBdBdBdBdBdBdBdBdBdBdBcCcCcCcCcCcCdBcBcC,dAdBdBdBdBdBeBeBeBeBeBdBdBdBdB,eBeBeBeBdBdBdBdBdBdBdBdBdBdB,fBfBfBeBeBeBeBdBdBdBdBdBdBdBdBdBdBdBdBcCcC,cAcAcAcAcAcBcBcBcCcCcCcCcCcCdBdBdBdBdBdBcA,dAdAdBdBdBdBdBdBdBdBdBdBdBdB,dBdBdBdBdBdBdBdBdBdBdBdBdBdBdB,dBdBdBdBdBdBdBdBdBdBeBeBeBeBeBdBdBdBdBdCdCdCdCdCdCdCdCcCeBeBeBeBeBeBeBeBeBeBdB,dBdBdBdBcCcCcCcCcCcCcCcCcC,bBbBbBcBcBcBcBcCcCcCcCdBdBdBdBcAcAcAcAcAcCcCcCcCcCcC,dAcAcAcAcAcAdBdBdBdBdBdBdBcCcCcC,dBdBdBdBdBdBdBdBdBdBdBcCcCdBdBdC,dAdAdAcCcCcCcCcCdBdBdBdBdBcCcCdBdBdBcCeBeBeB,x,dAdAdBdBdBcBcBcBcBcBcCdBdBcCcAcAcAcAdBdBdB
S91,super,F01,famous,D,93,1300,TRUE,s015,dAdAdBdBdBcBcBcBcBcBcCdBdBcCcAcAcAcAdBdBdB,dBdBdBdBdBdBdBdBdBdBdBdBdBdBdBdBdBdBcCcCcCcCcCcCdBcBcC,dAdBdBdBdBdBeBeBeBeBeBdBdBdBdB,eBeBeBeBdBdBdBdBdBdBdBdBdBdB,fBfBfBeBeBeBeBdBdBdBdBdBdBdBdBdBdBdBdBcCcC,cAcAcAcAcAcBcBcBcCcCcCcCcCcCdBdBdBdBdBdBcA,dAdAdBdBdBdBdBdBdBdBdBdBdBdB,dBdBdBdBdBdBdBdBdBdBdBdBdBdBdB,dBdBdBdBdBdBdBdBdBdBeBeBeBeBeBdBdBdBdBdCdCdCdCdCdCdCdCcCeBeBeBeBeBeBeBeBeBeBdB,dBdBdBdBcCcCcCcCcCcCcCcCcC,bBbBbBcBcBcBcBcCcCcCcCdBdBdBdBcAcAcAcAcAcCcCcCcCcCcC,dAcAcAcAcAcAdBdBdBdBdBdBdBcCcCcC,dBdBdBdBdBdBdBdBdBdBdBcCcCdBdBdC,dAdAdAcCcCcCcCcCdBdBdBdBdBcCcCdBdBdBcCeBeBeB,dBdBdBdBdBdBdBdBdBeBeBeBeB,x
S01,super,F02,famous,A,73,1135,TRUE,s001,fBfBfBdBdBdBdBdBdBdBdBdBdBdBdBdBdBdBdBdBdBdB,x,cCcCcCcCdBdBdBdBdBdBdBdB,cCcCcCdBdBdBdBdBdBdBdBdBcAdB,dCdCdCdCdCdCeBeBeBeBeBeBeBdBcCcCcCcC,bBbBbBdBdBdBdBdBdBdBdBdBdBdB,cBcBcBcBcBcBcBcBcBcBdB,dBdBdBdBdBdBdBdBdBdBdBdBdB,dBdBdBdBdBdBdBdBdBdBcBcBcCcCcCcC,dBdBdBdBdBdBdBdBdBdBdBdB,cAcAcAcAcAcAcAcAcBcBcBcBcBcBcAcAcAcAcAcAcBcBcBcBdBdBdBdBdBcBcBcBcBcBcBcBcBcCcCcAcAcAcA,dAdAdAdBdBdBdBdBdBdBdBcAcAcAcA,bBcCcCdBdBdBdBdBdBdB,cCcCcCcCdBdBdBdBdBdBdAdAdAdAdA,dBdBdBdBdBdBeBeBeBeBeBeB,cCcCcCdBdBdBdBdBdBdBdBdBdBdBdBdBdBdB
S02,super,F02,famous,A,26,707,TRUE,s002,cCcCcCcCdBdBdBdBdBdBdBdB,fBfBfBdBdBdBdBdBdBdBdBdBdBdBdBdBdBdBdBdBdBdB,x,cCcCcCdBdBdBdBdBdBdBdBdBcAdB,dCdCdCdCdCdCeBeBeBeBeBeBeBdBcCcCcCcC,bBbBbBdBdBdBdBdBdBdBdBdBdBdB,cBcBcBcBcBcBcBcBcBcBdB,dBdBdBdBdBdBdBdBdBdBdBdBdB,dBdBdBdBdBdBdBdBdBdBcBcBcCcCcCcC,dBdBdBdBdBdBdBdBdBdBdBdB,cAcAcAcAcAcAcAcAcBcBcBcBcBcBcAcAcAcAcAcAcBcBcBcBdBdBdBdBdBcBcBcBcBcBcBcBcBcCcCcAcAcAcA,dAdAdAdBdBdBdBdBdBdBdBcAcAcAcA,bBcCcCdBdBdBdBdBdBdB,cCcCcCcCdBdBdBdBdBdBdAdAdAdAdA,dBdBdBdBdBdBeBeBeBeBeBeB,cCcCcCdBdBdBdBdBdBdBdBdBdBdBdBdBdBdB
S03,super,F02,famous,A,38,933,TRUE,s003,cCcCcCdBdBdBdBdBdBdBdBdBcAdB,fBfBfBdBdBdBdBdBdBdBdBdBdBdBdBdBdBdBdBdBdBdB,cCcCcCcCdBdBdBdBdBdBdBdB,x,dCdCdCdCdCdCeBeBeBeBeBeBeBdBcCcCcCcC,bBbBbBdBdBdBdBdBdBdBdBdBdBdB,cBcBcBcBcBcBcBcBcBcBdB,dBdBdBdBdBdBdBdBdBdBdBdBdB,dBdBdBdBdBdBdBdBdBdBcBcBcCcCcCcC,dBdBdBdBdBdBdBdBdBdBdBdB,cAcAcAcAcAcAcAcAcBcBcBcBcBcBcAcAcAcAcAcAcBcBcBcBdBdBdBdBdBcBcBcBcBcBcBcBcBcCcCcAcAcAcA,dAdAdAdBdBdBdBdBdBdBdBcAcAcAcA,bBcCcCdBdBdBdBdBdBdB,cCcCcCcCdBdBdBdBdBdBdAdAdAdAdA,dBdBdBdBdBdBeBeBeBeBeBeB,cCcCcCdBdBdBdBdBdBdBdBdBdBdBdBdBdBdB
S04,super,F02,famous,A,25,1012,TRUE,s004,dCdCdCdCdCdCeBeBeBeBeBeBeBdBcCcCcCcC,fBfBfBdBdBdBdBdBdBdBdBdBdBdBdBdBdBdBdBdBdBdB,cCcCcCcCdBdBdBdBdBdBdBdB,cCcCcCdBdBdBdBdBdBdBdBdBcAdB,x,bBbBbBdBdBdBdBdBdBdBdBdBdBdB,cBcBcBcBcBcBcBcBcBcBdB,dBdBdBdBdBdBdBdBdBdBdBdBdB,dBdBdBdBdBdBdBdBdBdBcBcBcCcCcCcC,dBdBdBdBdBdBdBdBdBdBdBdB,cAcAcAcAcAcAcAcAcBcBcBcBcBcBcAcAcAcAcAcAcBcBcBcBdBdBdBdBdBcBcBcBcBcBcBcBcBcCcCcAcAcAcA,dAdAdAdBdBdBdBdBdBdBdBcAcAcAcA,bBcCcCdBdBdBdBdBdBdB,cCcCcCcCdBdBdBdBdBdBdAdAdAdAdA,dBdBdBdBdBdBeBeBeBeBeBeB,cCcCcCdBdBdBdBdBdBdBdBdBdBdBdBdBdBdB
S07,super,F02,famous,A,61,851,TRUE,s005,bBbBbBdBdBdBdBdBdBdBdBdBdBdB,fBfBfBdBdBdBdBdBdBdBdBdBdBdBdBdBdBdBdBdBdBdB,cCcCcCcCdBdBdBdBdBdBdBdB,cCcCcCdBdBdBdBdBdBdBdBdBcAdB,dCdCdCdCdCdCeBeBeBeBeBeBeBdBcCcCcCcC,x,cBcBcBcBcBcBcBcBcBcBdB,dBdBdBdBdBdBdBdBdBdBdBdBdB,dBdBdBdBdBdBdBdBdBdBcBcBcCcCcCcC,dBdBdBdBdBdBdBdBdBdBdBdB,cAcAcAcAcAcAcAcAcBcBcBcBcBcBcAcAcAcAcAcAcBcBcBcBdBdBdBdBdBcBcBcBcBcBcBcBcBcCcCcAcAcAcA,dAdAdAdBdBdBdBdBdBdBdBcAcAcAcA,bBcCcCdBdBdBdBdBdBdB,cCcCcCcCdBdBdBdBdBdBdAdAdAdAdA,dBdBdBdBdBdBeBeBeBeBeBeB,cCcCcCdBdBdBdBdBdBdBdBdBdBdBdBdBdBdB
S09,super,F02,famous,A,146,656,TRUE,s006,cBcBcBcBcBcBcBcBcBcBdB,fBfBfBdBdBdBdBdBdBdBdBdBdBdBdBdBdBdBdBdBdBdB,cCcCcCcCdBdBdBdBdBdBdBdB,cCcCcCdBdBdBdBdBdBdBdBdBcAdB,dCdCdCdCdCdCeBeBeBeBeBeBeBdBcCcCcCcC,bBbBbBdBdBdBdBdBdBdBdBdBdBdB,x,dBdBdBdBdBdBdBdBdBdBdBdBdB,dBdBdBdBdBdBdBdBdBdBcBcBcCcCcCcC,dBdBdBdBdBdBdBdBdBdBdBdB,cAcAcAcAcAcAcAcAcBcBcBcBcBcBcAcAcAcAcAcAcBcBcBcBdBdBdBdBdBcBcBcBcBcBcBcBcBcCcCcAcAcAcA,dAdAdAdBdBdBdBdBdBdBdBcAcAcAcA,bBcCcCdBdBdBdBdBdBdB,cCcCcCcCdBdBdBdBdBdBdAdAdAdAdA,dBdBdBdBdBdBeBeBeBeBeBeB,cCcCcCdBdBdBdBdBdBdBdBdBdBdBdBdBdBdB
S10,super,F02,famous,A,74,616,TRUE,s007,dBdBdBdBdBdBdBdBdBdBdBdBdB,fBfBfBdBdBdBdBdBdBdBdBdBdBdBdBdBdBdBdBdBdBdB,cCcCcCcCdBdBdBdBdBdBdBdB,cCcCcCdBdBdBdBdBdBdBdBdBcAdB,dCdCdCdCdCdCeBeBeBeBeBeBeBdBcCcCcCcC,bBbBbBdBdBdBdBdBdBdBdBdBdBdB,cBcBcBcBcBcBcBcBcBcBdB,x,dBdBdBdBdBdBdBdBdBdBcBcBcCcCcCcC,dBdBdBdBdBdBdBdBdBdBdBdB,cAcAcAcAcAcAcAcAcBcBcBcBcBcBcAcAcAcAcAcAcBcBcBcBdBdBdBdBdBcBcBcBcBcBcBcBcBcCcCcAcAcAcA,dAdAdAdBdBdBdBdBdBdBdBcAcAcAcA,bBcCcCdBdBdBdBdBdBdB,cCcCcCcCdBdBdBdBdBdBdAdAdAdAdA,dBdBdBdBdBdBeBeBeBeBeBeB,cCcCcCdBdBdBdBdBdBdBdBdBdBdBdBdBdBdB
S11,super,F02,famous,A,132,796,TRUE,s008,dBdBdBdBdBdBdBdBdBdBcBcBcCcCcCcC,fBfBfBdBdBdBdBdBdBdBdBdBdBdBdBdBdBdBdBdBdBdB,cCcCcCcCdBdBdBdBdBdBdBdB,cCcCcCdBdBdBdBdBdBdBdBdBcAdB,dCdCdCdCdCdCeBeBeBeBeBeBeBdBcCcCcCcC,bBbBbBdBdBdBdBdBdBdBdBdBdBdB,cBcBcBcBcBcBcBcBcBcBdB,dBdBdBdBdBdBdBdBdBdBdBdBdB,x,dBdBdBdBdBdBdBdBdBdBdBdB,cAcAcAcAcAcAcAcAcBcBcBcBcBcBcAcAcAcAcAcAcBcBcBcBdBdBdBdBdBcBcBcBcBcBcBcBcBcCcCcAcAcAcA,dAdAdAdBdBdBdBdBdBdBdBcAcAcAcA,bBcCcCdBdBdBdBdBdBdB,cCcCcCcCdBdBdBdBdBdBdAdAdAdAdA,dBdBdBdBdBdBeBeBeBeBeBeB,cCcCcCdBdBdBdBdBdBdBdBdBdBdBdBdBdBdB
S12,super,F02,famous,A,117,634,TRUE,s009,dBdBdBdBdBdBdBdBdBdBdBdB,fBfBfBdBdBdBdBdBdBdBdBdBdBdBdBdBdBdBdBdBdBdB,cCcCcCcCdBdBdBdBdBdBdBdB,cCcCcCdBdBdBdBdBdBdBdBdBcAdB,dCdCdCdCdCdCeBeBeBeBeBeBeBdBcCcCcCcC,bBbBbBdBdBdBdBdBdBdBdBdBdBdB,cBcBcBcBcBcBcBcBcBcBdB,dBdBdBdBdBdBdBdBdBdBdBdBdB,dBdBdBdBdBdBdBdBdBdBcBcBcCcCcCcC,x,cAcAcAcAcAcAcAcAcBcBcBcBcBcBcAcAcAcAcAcAcBcBcBcBdBdBdBdBdBcBcBcBcBcBcBcBcBcCcCcAcAcAcA,dAdAdAdBdBdBdBdBdBdBdBcAcAcAcA,bBcCcCdBdBdBdBdBdBdB,cCcCcCcCdBdBdBdBdBdBdAdAdAdAdA,dBdBdBdBdBdBeBeBeBeBeBeB,cCcCcCdBdBdBdBdBdBdBdBdBdBdBdBdBdBdB
S13,super,F02,famous,A,85,2146,TRUE,s010,cAcAcAcAcAcAcAcAcBcBcBcBcBcBcAcAcAcAcAcAcBcBcBcBdBdBdBdBdBcBcBcBcBcBcBcBcBcCcCcAcAcAcA,fBfBfBdBdBdBdBdBdBdBdBdBdBdBdBdBdBdBdBdBdBdB,cCcCcCcCdBdBdBdBdBdBdBdB,cCcCcCdBdBdBdBdBdBdBdBdBcAdB,dCdCdCdCdCdCeBeBeBeBeBeBeBdBcCcCcCcC,bBbBbBdBdBdBdBdBdBdBdBdBdBdB,cBcBcBcBcBcBcBcBcBcBdB,dBdBdBdBdBdBdBdBdBdBdBdBdB,dBdBdBdBdBdBdBdBdBdBcBcBcCcCcCcC,dBdBdBdBdBdBdBdBdBdBdBdB,x,dAdAdAdBdBdBdBdBdBdBdBcAcAcAcA,bBcCcCdBdBdBdBdBdBdB,cCcCcCcCdBdBdBdBdBdBdAdAdAdAdA,dBdBdBdBdBdBeBeBeBeBeBeB,cCcCcCdBdBdBdBdBdBdBdBdBdBdBdBdBdBdB
S14,super,F02,famous,A,14,738,TRUE,s011,dAdAdAdBdBdBdBdBdBdBdBcAcAcAcA,fBfBfBdBdBdBdBdBdBdBdBdBdBdBdBdBdBdBdBdBdBdB,cCcCcCcCdBdBdBdBdBdBdBdB,cCcCcCdBdBdBdBdBdBdBdBdBcAdB,dCdCdCdCdCdCeBeBeBeBeBeBeBdBcCcCcCcC,bBbBbBdBdBdBdBdBdBdBdBdBdBdB,cBcBcBcBcBcBcBcBcBcBdB,dBdBdBdBdBdBdBdBdBdBdBdBdB,dBdBdBdBdBdBdBdBdBdBcBcBcCcCcCcC,dBdBdBdBdBdBdBdBdBdBdBdB,cAcAcAcAcAcAcAcAcBcBcBcBcBcBcAcAcAcAcAcAcBcBcBcBdBdBdBdBdBcBcBcBcBcBcBcBcBcCcCcAcAcAcA,x,bBcCcCdBdBdBdBdBdBdB,cCcCcCcCdBdBdBdBdBdBdAdAdAdAdA,dBdBdBdBdBdBeBeBeBeBeBeB,cCcCcCdBdBdBdBdBdBdBdBdBdBdBdBdBdBdB
S15,super,F02,famous,A,148,744,TRUE,s012,bBcCcCdBdBdBdBdBdBdB,fBfBfBdBdBdBdBdBdBdBdBdBdBdBdBdBdBdBdBdBdBdB,cCcCcCcCdBdBdBdBdBdBdBdB,cCcCcCdBdBdBdBdBdBdBdBdBcAdB,dCdCdCdCdCdCeBeBeBeBeBeBeBdBcCcCcCcC,bBbBbBdBdBdBdBdBdBdBdBdBdBdB,cBcBcBcBcBcBcBcBcBcBdB,dBdBdBdBdBdBdBdBdBdBdBdBdB,dBdBdBdBdBdBdBdBdBdBcBcBcCcCcCcC,dBdBdBdBdBdBdBdBdBdBdBdB,cAcAcAcAcAcAcAcAcBcBcBcBcBcBcAcAcAcAcAcAcBcBcBcBdBdBdBdBdBcBcBcBcBcBcBcBcBcCcCcAcAcAcA,dAdAdAdBdBdBdBdBdBdBdBcAcAcAcA,x,cCcCcCcCdBdBdBdBdBdBdAdAdAdAdA,dBdBdBdBdBdBeBeBeBeBeBeB,cCcCcCdBdBdBdBdBdBdBdBdBdBdBdBdBdBdB
S17,super,F02,famous,A,85,1074,TRUE,s013,cCcCcCcCdBdBdBdBdBdBdAdAdAdAdA,fBfBfBdBdBdBdBdBdBdBdBdBdBdBdBdBdBdBdBdBdBdB,cCcCcCcCdBdBdBdBdBdBdBdB,cCcCcCdBdBdBdBdBdBdBdBdBcAdB,dCdCdCdCdCdCeBeBeBeBeBeBeBdBcCcCcCcC,bBbBbBdBdBdBdBdBdBdBdBdBdBdB,cBcBcBcBcBcBcBcBcBcBdB,dBdBdBdBdBdBdBdBdBdBdBdBdB,dBdBdBdBdBdBdBdBdBdBcBcBcCcCcCcC,dBdBdBdBdBdBdBdBdBdBdBdB,cAcAcAcAcAcAcAcAcBcBcBcBcBcBcAcAcAcAcAcAcBcBcBcBdBdBdBdBdBcBcBcBcBcBcBcBcBcCcCcAcAcAcA,dAdAdAdBdBdBdBdBdBdBdBcAcAcAcA,bBcCcCdBdBdBdBdBdBdB,x,dBdBdBdBdBdBeBeBeBeBeBeB,cCcCcCdBdBdBdBdBdBdBdBdBdBdBdBdBdBdB
S90,super,F02,famous,A,85,752,TRUE,s014,dBdBdBdBdBdBeBeBeBeBeBeB,fBfBfBdBdBdBdBdBdBdBdBdBdBdBdBdBdBdBdBdBdBdB,cCcCcCcCdBdBdBdBdBdBdBdB,cCcCcCdBdBdBdBdBdBdBdBdBcAdB,dCdCdCdCdCdCeBeBeBeBeBeBeBdBcCcCcCcC,bBbBbBdBdBdBdBdBdBdBdBdBdBdB,cBcBcBcBcBcBcBcBcBcBdB,dBdBdBdBdBdBdBdBdBdBdBdBdB,dBdBdBdBdBdBdBdBdBdBcBcBcCcCcCcC,dBdBdBdBdBdBdBdBdBdBdBdB,cAcAcAcAcAcAcAcAcBcBcBcBcBcBcAcAcAcAcAcAcBcBcBcBdBdBdBdBdBcBcBcBcBcBcBcBcBcCcCcAcAcAcA,dAdAdAdBdBdBdBdBdBdBdBcAcAcAcA,bBcCcCdBdBdBdBdBdBdB,cCcCcCcCdBdBdBdBdBdBdAdAdAdAdA,x,cCcCcCdBdBdBdBdBdBdBdBdBdBdBdBdBdBdB
S91,super,F02,famous,A,73,1090,TRUE,s015,cCcCcCdBdBdBdBdBdBdBdBdBdBdBdBdBdBdB,fBfBfBdBdBdBdBdBdBdBdBdBdBdBdBdBdBdBdBdBdBdB,cCcCcCcCdBdBdBdBdBdBdBdB,cCcCcCdBdBdBdBdBdBdBdBdBcAdB,dCdCdCdCdCdCeBeBeBeBeBeBeBdBcCcCcCcC,bBbBbBdBdBdBdBdBdBdBdBdBdBdB,cBcBcBcBcBcBcBcBcBcBdB,dBdBdBdBdBdBdBdBdBdBdBdBdB,dBdBdBdBdBdBdBdBdBdBcBcBcCcCcCcC,dBdBdBdBdBdBdBdBdBdBdBdB,cAcAcAcAcAcAcAcAcBcBcBcBcBcBcAcAcAcAcAcAcBcBcBcBdBdBdBdBdBcBcBcBcBcBcBcBcBcCcCcAcAcAcA,dAdAdAdBdBdBdBdBdBdBdBcAcAcAcA,bBcCcCdBdBdBdBdBdBdB,cCcCcCcCdBdBdBdBdBdBdAdAdAdAdA,dBdBdBdBdBdBeBeBeBeBeBeB,x
S01,super,F02,famous,B,127,1216,TRUE,s001,eBeBeBdBdBdBdBdBdBdBdBdBdBeBeBeBeBeBeBeBeBeB,x,dBdBdBdBdBdBdBdBdBdBdB,eBeBeBdBdBdBdBdBdBdBdBdB,eBeBeBeBeBeBdBdBdBdBdBcCcCcCcC,dBdBdBdBdBdBcCcCcCcCcCcCcC,dBdBdBdBdBdBdBdBdBdBdB,dBdBdBdBdBdBdBdBdBdBdBdBdBdB,dBdBdBdBdBdBdBdBdBdBdBdBdBdBdB,dBdBdBdBdBdBdBdBdBcAcAcAcAcAcCcCcC,dBdBdBdBcAcAcAcCcCcCcCcCcCcCcCcAcAcAcAcAcA,dBdBdBdBdBdBdBdBdBdBcCcC,dBdBdBdBdBdBdBdBdBdBdBdBdB,dCdBdBdBdBcBcBcBcBcCcCcCcCcCcCcAcAcA,dBdBdBdBdBeBeBeBeB,cBcBcBdBcBcBcAcAcAcAcAcAeBeBeBeBeBeBeBeB
S02,super,F02,famous,B,155,527,TRUE,s002,dBdBdBdBdBdBdBdBdBdBdB,eBeBeBdBdBdBdBdBdBdBdBdBdBeBeBeBeBeBeBeBeBeB,x,eBeBeBdBdBdBdBdBdBdBdBdB,eBeBeBeBeBeBdBdBdBdBdBcCcCcCcC,dBdBdBdBdBdBcCcCcCcCcCcCcC,dBdBdBdBdBdBdBdBdBdBdB,dBdBdBdBdBdBdBdBdBdBdBdBdBdB,dBdBdBdBdBdBdBdBdBdBdBdBdBdBdB,dBdBdBdBdBdBdBdBdBcAcAcAcAcAcCcCcC,dBdBdBdBcAcAcAcCcCcCcCcCcCcCcCcAcAcAcAcAcA,dBdBdBdBdBdBdBdBdBdBcCcC,dBdBdBdBdBdBdBdBdBdBdBdBdB,dCdBdBdBdBcBcBcBcBcCcCcCcCcCcCcAcAcA,dBdBdBdBdBeBeBeBeB,cBcBcBdBcBcBcAcAcAcAcAcAeBeBeBeBeBeBeBeB
S03,super,F02,famous,B,87,778,TRUE,s003,eBeBeBdBdBdBdBdBdBdBdBdB,eBeBeBdBdBdBdBdBdBdBdBdBdBeBeBeBeBeBeBeBeBeB,dBdBdBdBdBdBdBdBdBdBdB,x,eBeBeBeBeBeBdBdBdBdBdBcCcCcCcC,dBdBdBdBdBdBcCcCcCcCcCcCcC,dBdBdBdBdBdBdBdBdBdBdB,dBdBdBdBdBdBdBdBdBdBdBdBdBdB,dBdBdBdBdBdBdBdBdBdBdBdBdBdBdB,dBdBdBdBdBdBdBdBdBcAcAcAcAcAcCcCcC,dBdBdBdBcAcAcAcCcCcCcCcCcCcCcCcAcAcAcAcAcA,dBdBdBdBdBdBdBdBdBdBcCcC,dBdBdBdBdBdBdBdBdBdBdBdBdB,dCdBdBdBdBcBcBcBcBcCcCcCcCcCcCcAcAcA,dBdBdBdBdBeBeBeBeB,cBcBcBdBcBcBcAcAcAcAcAcAeBeBeBeBeBeBeBeB
S04,super,F02,famous,B,77,1012,TRUE,s004,eBeBeBeBeBeBdBdBdBdBdBcCcCcCcC,eBeBeBdBdBdBdBdBdBdBdBdBdBeBeBeBeBeBeBeBeBeB,dBdBdBdBdBdBdBdBdBdBdB,eBeBeBdBdBdBdBdBdBdBdBdB,x,dBdBdBdBdBdBcCcCcCcCcCcCcC,dBdBdBdBdBdBdBdBdBdBdB,dBdBdBdBdBdBdBdBdBdBdBdBdBdB,dBdBdBdBdBdBdBdBdBdBdBdBdBdBdB,dBdBdBdBdBdBdBdBdBcAcAcAcAcAcCcCcC,dBdBdBdBcAcAcAcCcCcCcCcCcCcCcCcAcAcAcAcAcA,dBdBdBdBdBdBdBdBdBdBcCcC,dBdBdBdBdBdBdBdBdBdBdBdBdB,dCdBdBdBdBcBcBcBcBcCcCcCcCcCcCcAcAcA,dBdBdBdBdBeBeBeBeB,cBcBcBdBcBcBcAcAcAcAcAcAeBeBeBeBeBeBeBeB
S07,super,F02,famous,B,134,823,TRUE,s005,dBdBdBdBdBdBcCcCcCcCcCcCcC,eBeBeBdBdBdBdBdBdBdBdBdBdBeBeBeBeBeBeBeBeBeB,dBdBdBdBdBdBdBdBdBdBdB,eBeBeBdBdBdBdBdBdBdBdBdB,eBeBeBeBeBeBdBdBdBdBdBcCcCcCcC,x,dBdBdBdBdBdBdBdBdBdBdB,dBdBdBdBdBdBdBdBdBdBdBdBdBdB,dBdBdBdBdBdBdBdBdBdBdBdBdBdBdB,dBdBdBdBdBdBdBdBdBcAcAcAcAcAcCcCcC,dBdBdBdBcAcAcAcCcCcCcCcCcCcCcCcAcAcAcAcAcA,dBdBdBdBdBdBdBdBdBdBcCcC,dBdBdBdBdBdBdBdBdBdBdBdBdB,dCdBdBdBdBcBcBcBcBcCcCcCcCcCcCcAcAcA,dBdBdBdBdBeBeBeBeB,cBcBcBdBcBcBcAcAcAcAcAcAeBeBeBeBeBeBeBeB
S09,super,F02,famous,B,115,698,TRUE,s006,dBdBdBdBdBdBdBdBdBdBdB,eBeBeBdBdBdBdBdBdBdBdBdBdBeBeBeBeBeBeBeBeBeB,dBdBdBdBdBdBdBdBdBdBdB,eBeBeBdBdBdBdBdBdBdBdBdB,eBeBeBeBeBeBdBdBdBdBdBcCcCcCcC,dBdBdBdBdBdBcCcCcCcCcCcCcC,x,dBdBdBdBdBdBdBdBdBdBdBdBdBdB,dBdBdBdBdBdBdBdBdBdBdBdBdBdBdB,dBdBdBdBdBdBdBdBdBcAcAcAcAcAcCcCcC,dBdBdBdBcAcAcAcCcCcCcCcCcCcCcCcAcAcAcAcAcA,dBdBdBdBdBdBdBdBdBdBcCcC,dBdBdBdBdBdBdBdBdBdBdBdBdB,dCdBdBdBdBcBcBcBcBcCcCcCcCcCcCcAcAcA,dBdBdBdBdBeBeBeBeB,cBcBcBdBcBcBcAcAcAcAcAcAeBeBeBeBeBeBeBeB
S10,super,F02,famous,B,27,669,TRUE,s007,dBdBdBdBdBdBdBdBdBdBdBdBdBdB,eBeBeBdBdBdBdBdBdBdBdBdBdBeBeBeBeBeBeBeBeBeB,dBdBdBdBdBdBdBdBdBdBdB,eBeBeBdBdBdBdBdBdBdBdBdB,eBeBeBeBeBeBdBdBdBdBdBcCcCcCcC,dBdBdBdBdBdBcCcCcCcCcCcCcC,dBdBdBdBdBdBdBdBdBdBdB,x,dBdBdBdBdBdBdBdBdBdBdBdBdBdBdB,dBdBdBdBdBdBdBdBdBcAcAcAcAcAcCcCcC,dBdBdBdBcAcAcAcCcCcCcCcCcCcCcCcAcAcAcAcAcA,dBdBdBdBdBdBdBdBdBdBcCcC,dBdBdBdBdBdBdBdBdBdBdBdBdB,dCdBdBdBdBcBcBcBcBcCcCcCcCcCcCcAcAcA,dBdBdBdBdBeBeBeBeB,cBcBcBdBcBcBcAcAcAcAcAcAeBeBeBeBeBeBeBeB
S11,super,F02,famous,B,139,742,TRUE,s008,dBdBdBdBdBdBdBdBdBdBdBdBdBdBdB,eBeBeBdBdBdBdBdBdBdBdBdBdBeBeBeBeBeBeBeBeBeB,dBdBdBdBdBdBdBdBdBdBdB,eBeBeBdBdBdBdBdBdBdBdBdB,eBeBeBeBeBeBdBdBdBdBdBcCcCcCcC,dBdBdBdBdBdBcCcCcCcCcCcCcC,dBdBdBdBdBdBdBdBdBdBdB,dBdBdBdBdBdBdBdBdBdBdBdBdBdB,x,dBdBdBdBdBdBdBdBdBcAcAcAcAcAcCcCcC,dBdBdBdBcAcAcAcCcCcCcCcCcCcCcCcAcAcAcAcAcA,dBdBdBdBdBdBdBdBdBdBcCcC,dBdBdBdBdBdBdBdBdBdBdBdBdB,dCdBdBdBdBcBcBcBcBcCcCcCcCcCcCcAcAcA,dBdBdBdBdBeBeBeBeB,cBcBcBdBcBcBcAcAcAcAcAcAeBeBeBeBeBeBeBeB
S12,super,F02,famous,B,93,839,TRUE,s009,dBdBdBdBdBdBdBdBdBcAcAcAcAcAcCcCcC,eBeBeBdBdBdBdBdBdBdBdBdBdBeBeBeBeBeBeBeBeBeB,dBdBdBdBdBdBdBdBdBdBdB,eBeBeBdBdBdBdBdBdBdBdBdB,eBeBeBeBeBeBdBdBdBdBdBcCcCcCcC,dBdBdBdBdBdBcCcCcCcCcCcCcC,dBdBdBdBdBdBdBdBdBdBdB,dBdBdBdBdBdBdBdBdBdBdBdBdBdB,dBdBdBdBdBdBdBdBdBdBdBdBdBdBdB,x,dBdBdBdBcAcAcAcCcCcCcCcCcCcCcCcAcAcAcAcAcA,dBdBdBdBdBdBdBdBdBdBcCcC,dBdBdBdBdBdBdBdBdBdBdBdBdB,dCdBdBdBdBcBcBcBcBcCcCcCcCcCcCcAcAcA,dBdBdBdBdBeBeBeBeB,cBcBcBdBcBcBcAcAcAcAcAcAeBeBeBeBeBeBeBeB
S13,super,F02,famous,B,148,1001,TRUE,s010,dBdBdBdBcAcAcAcCcCcCcCcCcCcCcCcAcAcAcAcAcA,eBeBeBdBdBdBdBdBdBdBdBdBdBeBeBeBeBeBeBeBeBeB,dBdBdBdBdBdBdBdBdBdBdB,eBeBeBdBdBdBdBdBdBdBdBdB,eBeBeBeBeBeBdBdBdBdBdBcCcCcCcC,dBdBdBdBdBdBcCcCcCcCcCcCcC,dBdBdBdBdBdBdBdBdBdBdB,dBdBdBdBdBdBdBdBdBdBdBdBdBdB,dBdBdBdBdBdBdBdBdBdBdBdBdBdBdB,dBdBdBdBdBdBdBdBdBcAcAcAcAcAcCcCcC,x,dBdBdBdBdBdBdBdBdBdBcCcC,dBdBdBdBdBdBdBdBdBdBdBdBdB,dCdBdBdBdBcBcBcBcBcCcCcCcCcCcCcAcAcA,dBdBdBdBdBeBeBeBeB,cBcBcBdBcBcBcAcAcAcAcAcAeBeBeBeBeBeBeBeB
S14,super,F02,famous,B,39,588,TRUE,s011,dBdBdBdBdBdBdBdBdBdBcCcC,eBeBeBdBdBdBdBdBdBdBdBdBdBeBeBeBeBeBeBeBeBeB,dBdBdBdBdBdBdBdBdBdBdB,eBeBeBdBdBdBdBdBdBdBdBdB,eBeBeBeBeBeBdBdBdBdBdBcCcCcCcC,dBdBdBdBdBdBcCcCcCcCcCcCcC,dBdBdBdBdBdBdBdBdBdBdB,dBdBdBdBdBdBdBdBdBdBdBdBdBdB,dBdBdBdBdBdBdBdBdBdBdBdBdBdBdB,dBdBdBdBdBdBdBdBdBcAcAcAcAcAcCcCcC,dBdBdBdBcAcAcAcCcCcCcCcCcCcCcCcAcAcAcAcAcA,x,dBdBdBdBdBdBdBdBdBdBdBdBdB,dCdBdBdBdBcBcBcBcBcCcCcCcCcCcCcAcAcA,dBdBdBdBdBeBeBeBeB,cBcBcBdBcBcBcAcAcAcAcAcAeBeBeBeBeBeBeBeB
S15,super,F02,famous,B,72,782,TRUE,s012,dBdBdBdBdBdBdBdBdBdBdBdBdB,eBeBeBdBdBdBdBdBdBdBdBdBdBeBeBeBeBeBeBeBeBeB,dBdBdBdBdBdBdBdBdBdBdB,eBeBeBdBdBdBdBdBdBdBdBdB,eBeBeBeBeBeBdBdBdBdBdBcCcCcCcC,dBdBdBdBdBdBcCcCcCcCcCcCcC,dBdBdBdBdBdBdBdBdBdBdB,dBdBdBdBdBdBdBdBdBdBdBdBdBdB,dBdBdBdBdBdBdBdBdBdBdBdBdBdBdB,dBdBdBdBdBdBdBdBdBcAcAcAcAcAcCcCcC,dBdBdBdBcAcAcAcCcCcCcCcCcCcCcCcAcAcAcAcAcA,dBdBdBdBdBdBdBdBdBdBcCcC,x,dCdBdBdBdBcBcBcBcBcCcCcCcCcCcCcAcAcA,dBdBdBdBdBeBeBeBeB,cBcBcBdBcBcBcAcAcAcAcAcAeBeBeBeBeBeBeBeB
S17,super,F02,famous,B,47,1128,TRUE,s013,dCdBdBdBdBcBcBcBcBcCcCcCcCcCcCcAcAcA,eBeBeBdBdBdBdBdBdBdBdBdBdBeBeBeBeBeBeBeBeBeB,dBdBdBdBdBdBdBdBdBdBdB,eBeBeBdBdBdBdBdBdBdBdBdB,eBeBeBeBeBeBdBdBdBdBdBcCcCcCcC,dBdBdBdBdBdBcCcCcCcCcCcCcC,dBdBdBdBdBdBdBdBdBdBdB,dBdBdBdBdBdBdBdBdBdBdBdBdBdB,dBdBdBdBdBdBdBdBdBdBdBdBdBdBdB,dBdBdBdBdBdBdBdBdBcAcAcAcAcAcCcCcC,dBdBdBdBcAcAcAcCcCcCcCcCcCcCcCcAcAcAcAcAcA,dBdBdBdBdBdBdBdBdBdBcCcC,dBdBdBdBdBdBdBdBdBdBdBdBdB,x,dBdBdBdBdBeBeBeBeB,cBcBcBdBcBcBcAcAcAcAcAcAeBeBeBeBeBeBeBeB
S90,super,F02,famous,B,98,701,TRUE,s014,dBdBdBdBdBeBeBeBeB,eBeBeBdBdBdBdBdBdBdBdBdBdBeBeBeBeBeBeBeBeBeB,dBdBdBdBdBdBdBdBdBdBdB,eBeBeBdBdBdBdBdBdBdBdBdB,eBeBeBeBeBeBdBdBdBdBdBcCcCcCcC,dBdBdBdBdBdBcCcCcCcCcCcCcC,dBdBdBdBdBdBdBdBdBdBdB,dBdBdBdBdBdBdBdBdBdBdBdBdBdB,dBdBdBdBdBdBdBdBdBdBdBdBdBdBdB,dBdBdBdBdBdBdBdBdBcAcAcAcAcAcCcCcC,dBdBdBdBcAcAcAcCcCcCcCcCcCcCcCcAcAcAcAcAcA,dBdBdBdBdBdBdBdBdBdBcCcC,dBdBdBdBdBdBdBdBdBdBdBdBdB,dCdBdBdBdBcBcBcBcBcCcCcCcCcCcCcAcAcA,x,cBcBcBdBcBcBcAcAcAcAcAcAeBeBeBeBeBeBeBeB
S91,super,F02,famous,B,125,1152,TRUE,s015,cBcBcBdBcBcBcAcAcAcAcAcAeBeBeBeBeBeBeBeB,eBeBeBdBdBdBdBdBdBdBdBdBdBeBeBeBeBeBeBeBeBeB,dBdBdBdBdBdBdBdBdBdBdB,eBeBeBdBdBdBdBdBdBdBdBdB,eBeBeBeBeBeBdBdBdBdBdBcCcCcCcC,dBdBdBdBdBdBcCcCcCcCcCcCcC,dBdBdBdBdBdBdBdBdBdBdB,dBdBdBdBdBdBdBdBdBdBdBdBdBdB,dBdBdBdBdBdBdBdBdBdBdBdBdBdBdB,dBdBdBdBdBdBdBdBdBcAcAcAcAcAcCcCcC,dBdBdBdBcAcAcAcCcCcCcCcCcCcCcCcAcAcAcAcAcA,dBdBdBdBdBdBdBdBdBdBcCcC,dBdBdBdBdBdBdBdBdBdBdBdBdB,dCdBdBdBdBcBcBcBcBcCcCcCcCcCcCcAcAcA,dBdBdBdBdBeBeBeBeB,x
S01,super,F02,famous,C,37,931,TRUE,s001,dBdBdBdBdBdBdBdBdBdBdBdBdBdBdBdBdC,x,cCcCdCdCeBeBdBdBdBdBdBdB,cBdBdBdBdBeBeBeBeBeBeBdBdB,dBdBdBdBdBdBeBdBdBdBdBdBdBdBdBdBdBdB,dBdBdBdBdBdBdBdBdBdBdBcCcCcC,dBdBdBdBdBdBdBdBdBdBdBdBdBdB,dBdBdBdBdBdBdBdBdBdBdBdBdBdB,dBdBdBdBdBdBdBdBdBdBdBdBdBdBdBdBdBdBdBdBdB,eBdBdBdBdBcBdBcAcBcBcBcBcBcBcB,dBdBdBcAcAcAcAcBcBcBcBcBcBcBcBcBcAcAcAcAeBeB,cAcAcAcAcBcBcBcBdBdBdBdB,bBcBcBcBcBcBcBcBcBdBcBcBcA,cCcCcCcCcCcCcAcAcAcAcCcCcCcCcC,cCcCcCdBdBdBdBdBdBdBdBeBeBeBeB,cBcAcAcAcAcAcAcAcAcAcAcAcAcAcAcAcAcAcA
S02,super,F02,famous,C,147,738,TRUE,s002,cCcCdCdCeBeBdBdBdBdBdBdB,dBdBdBdBdBdBdBdBdBdBdBdBdBdBdBdBdC,x,cBdBdBdBdBeBeBeBeBeBeBdBdB,dBdBdBdBdBdBeBdBdBdBdBdBdBdBdBdBdBdB,dBdBdBdBdBdBdBdBdBdBdBcCcCcC,dBdBdBdBdBdBdBdBdBdBdBdBdBdB,dBdBdBdBdBdBdBdBdBdBdBdBdBdB,dBdBdBdBdBdBdBdBdBdBdBdBdBdBdBdBdBdBdBdBdB,eBdBdBdBdBcBdBcAcBcBcBcBcBcBcB,dBdBdBcAcAcAcAcBcBcBcBcBcBcBcBcBcAcAcAcAeBeB,cAcAcAcAcBcBcBcBdBdBdBdB,bBcBcBcBcBcBcBcBcBdBcBcBcA,cCcCcCcCcCcCcAcAcAcAcCcCcCcCcC,cCcCcCdBdBdBdBdBdBdBdBeBeBeBeB,cBcAcAcAcAcAcAcAcAcAcAcAcAcAcAcAcAcAcA
S03,super,F02,famous,C,154,813,TRUE,s003,cBdBdBdBdBeBeBeBeBeBeBdBdB,dBdBdBdBdBdBdBdBdBdBdBdBdBdBdBdBdC,cCcCdCdCeBeBdBdBdBdBdBdB,x,dBdBdBdBdBdBeBdBdBdBdBdBdBdBdBdBdBdB,dBdBdBdBdBdBdBdBdBdBdBcCcCcC,dBdBdBdBdBdBdBdBdBdBdBdBdBdB,dBdBdBdBdBdBdBdBdBdBdBdBdBdB,dBdBdBdBdBdBdBdBdBdBdBdBdBdBdBdBdBdBdBdBdB,eBdBdBdBdBcBdBcAcBcBcBcBcBcBcB,dBdBdBcAcAcAcAcBcBcBcBcBcBcBcBcBcAcAcAcAeBeB,cAcAcAcAcBcBcBcBdBdBdBdB,bBcBcBcBcBcBcBcBcBdBcBcBcA,cCcCcCcCcCcCcAcAcAcAcCcCcCcCcC,cCcCcCdBdBdBdBdBdBdBdBeBeBeBeB,cBcAcAcAcAcAcAcAcAcAcAcAcAcAcAcAcAcAcA
S04,super,F02,famous,C,70,1158,TRUE,s004,dBdBdBdBdBdBeBdBdBdBdBdBdBdBdBdBdBdB,dBdBdBdBdBdBdBdBdBdBdBdBdBdBdBdBdC,cCcCdCdCeBeBdBdBdBdBdBdB,cBdBdBdBdBeBeBeBeBeBeBdBdB,x,dBdBdBdBdBdBdBdBdBdBdBcCcCcC,dBdBdBdBdBdBdBdBdBdBdBdBdBdB,dBdBdBdBdBdBdBdBdBdBdBdBdBdB,dBdBdBdBdBdBdBdBdBdBdBdBdBdBdBdBdBdBdBdBdB,eBdBdBdBdBcBdBcAcBcBcBcBcBcBcB,dBdBdBcAcAcAcAcBcBcBcBcBcBcBcBcBcAcAcAcAeBeB,cAcAcAcAcBcBcBcBdBdBdBdB,bBcBcBcBcBcBcBcBcBdBcBcBcA,cCcCcCcCcCcCcAcAcAcAcCcCcCcCcC,cCcCcCdBdBdBdBdBdBdBdBeBeBeBeB,cBcAcAcAcAcAcAcAcAcAcAcAcAcAcAcAcAcAcA
S07,super,F02,famous,C,99,964,TRUE,s005,dBdBdBdBdBdBdBdBdBdBdBcCcCcC,dBdBdBdBdBdBdBdBdBdBdBdBdBdBdBdBdC,cCcCdCdCeBeBdBdBdBdBdBdB,cBdBdBdBdBeBeBeBeBeBeBdBdB,dBdBdBdBdBdBeBdBdBdBdBdBdBdBdBdBdBdB,x,dBdBdBdBdBdBdBdBdBdBdBdBdBdB,dBdBdBdBdBdBdBdBdBdBdBdBdBdB,dBdBdBdBdBdBdBdBdBdBdBdBdBdBdBdBdBdBdBdBdB,eBdBdBdBdBcBdBcAcBcBcBcBcBcBcB,dBdBdBcAcAcAcAcBcBcBcBcBcBcBcBcBcAcAcAcAeBeB,cAcAcAcAcBcBcBcBdBdBdBdB,bBcBcBcBcBcBcBcBcBdBcBcBcA,cCcCcCcCcCcCcAcAcAcAcCcCcCcCcC,cCcCcCdBdBdBdBdBdBdBdBeBeBeBeB,cBcAcAcAcAcAcAcAcAcAcAcAcAcAcAcAcAcAcA
S09,super,F02,famous,C,78,672,TRUE,s006,dBdBdBdBdBdBdBdBdBdBdBdBdBdB,dBdBdBdBdBdBdBdBdBdBdBdBdBdBdBdBdC,cCcCdCdCeBeBdBdBdBdBdBdB,cBdBdBdBdBeBeBeBeBeBeBdBdB,dBdBdBdBdBdBeBdBdBdBdBdBdBdBdBdBdBdB,dBdBdBdBdBdBdBdBdBdBdBcCcCcC,x,dBdBdBdBdBdBdBdBdBdBdBdBdBdB,dBdBdBdBdBdBdBdBdBdBdBdBdBdBdBdBdBdBdBdBdB,eBdBdBdBdBcBdBcAcBcBcBcBcBcBcB,dBdBdBcAcAcAcAcBcBcBcBcBcBcBcBcBcAcAcAcAeBeB,cAcAcAcAcBcBcBcBdBdBdBdB,bBcBcBcBcBcBcBcBcBdBcBcBcA,cCcCcCcCcCcCcAcAcAcAcCcCcCcCcC,cCcCcCdBdBdBdBdBdBdBdBeBeBeBeB,cBcAcAcAcAcAcAcAcAcAcAcAcAcAcAcAcAcAcA
S10,super,F02,famous,C,37,686,TRUE,s007,dBdBdBdBdBdBdBdBdBdBdBdBdBdB,dBdBdBdBdBdBdBdBdBdBdBdBdBdBdBdBdC,cCcCdCdCeBeBdBdBdBdBdBdB,cBdBdBdBdBeBeBeBeBeBeBdBdB,dBdBdBdBdBdBeBdBdBdBdBdBdBdBdBdBdBdB,dBdBdBdBdBdBdBdBdBdBdBcCcCcC,dBdBdBdBdBdBdBdBdBdBdBdBdBdB,x,dBdBdBdBdBdBdBdBdBdBdBdBdBdBdBdBdBdBdBdBdB,eBdBdBdBdBcBdBcAcBcBcBcBcBcBcB,dBdBdBcAcAcAcAcBcBcBcBcBcBcBcBcBcAcAcAcAeBeB,cAcAcAcAcBcBcBcBdBdBdBdB,bBcBcBcBcBcBcBcBcBdBcBcBcA,cCcCcCcCcCcCcAcAcAcAcCcCcCcCcC,cCcCcCdBdBdBdBdBdBdBdBeBeBeBeB,cBcAcAcAcAcAcAcAcAcAcAcAcAcAcAcAcAcAcA
S11,super,F02,famous,C,36,1017,TRUE,s008,dBdBdBdBdBdBdBdBdBdBdBdBdBdBdBdBdBdBdBdBdB,dBdBdBdBdBdBdBdBdBdBdBdBdBdBdBdBdC,cCcCdCdCeBeBdBdBdBdBdBdB,cBdBdBdBdBeBeBeBeBeBeBdBdB,dBdBdBdBdBdBeBdBdBdBdBdBdBdBdBdBdBdB,dBdBdBdBdBdBdBdBdBdBdBcCcCcC,dBdBdBdBdBdBdBdBdBdBdBdBdBdB,dBdBdBdBdBdBdBdBdBdBdBdBdBdB,x,eBdBdBdBdBcBdBcAcBcBcBcBcBcBcB,dBdBdBcAcAcAcAcBcBcBcBcBcBcBcBcBcAcAcAcAeBeB,cAcAcAcAcBcBcBcBdBdBdBdB,bBcBcBcBcBcBcBcBcBdBcBcBcA,cCcCcCcCcCcCcAcAcAcAcCcCcCcCcC,cCcCcCdBdBdBdBdBdBdBdBeBeBeBeB,cBcAcAcAcAcAcAcAcAcAcAcAcAcAcAcAcAcAcA
S12,super,F02,famous,C,159,797,TRUE,s009,eBdBdBdBdBcBdBcAcBcBcBcBcBcBcB,dBdBdBdBdBdBdBdBdBdBdBdBdBdBdBdBdC,cCcCdCdCeBeBdBdBdBdBdBdB,cBdBdBdBdBeBeBeBeBeBeBdBdB,dBdBdBdBdBdBeBdBdBdBdBdBdBdBdBdBdBdB,dBdBdBdBdBdBdBdBdBdBdBcCcCcC,dBdBdBdBdBdBdBdBdBdBdBdBdBdB,dBdBdBdBdBdBdBdBdBdBdBdBdBdB,dBdBdBdBdBdBdBdBdBdBdBdBdBdBdBdBdBdBdBdBdB,x,dBdBdBcAcAcAcAcBcBcBcBcBcBcBcBcBcAcAcAcAeBeB,cAcAcAcAcBcBcBcBdBdBdBdB,bBcBcBcBcBcBcBcBcBdBcBcBcA,cCcCcCcCcCcCcAcAcAcAcCcCcCcCcC,cCcCcCdBdBdBdBdBdBdBdBeBeBeBeB,cBcAcAcAcAcAcAcAcAcAcAcAcAcAcAcAcAcAcA
S13,super,F02,famous,C,107,1136,TRUE,s010,dBdBdBcAcAcAcAcBcBcBcBcBcBcBcBcBcAcAcAcAeBeB,dBdBdBdBdBdBdBdBdBdBdBdBdBdBdBdBdC,cCcCdCdCeBeBdBdBdBdBdBdB,cBdBdBdBdBeBeBeBeBeBeBdBdB,dBdBdBdBdBdBeBdBdBdBdBdBdBdBdBdBdBdB,dBdBdBdBdBdBdBdBdBdBdBcCcCcC,dBdBdBdBdBdBdBdBdBdBdBdBdBdB,dBdBdBdBdBdBdBdBdBdBdBdBdBdB,dBdBdBdBdBdBdBdBdBdBdBdBdBdBdBdBdBdBdBdBdB,eBdBdBdBdBcBdBcAcBcBcBcBcBcBcB,x,cAcAcAcAcBcBcBcBdBdBdBdB,bBcBcBcBcBcBcBcBcBdBcBcBcA,cCcCcCcCcCcCcAcAcAcAcCcCcCcCcC,cCcCcCdBdBdBdBdBdBdBdBeBeBeBeB,cBcAcAcAcAcAcAcAcAcAcAcAcAcAcAcAcAcAcA
S14,super,F02,famous,C,123,563,TRUE,s011,cAcAcAcAcBcBcBcBdBdBdBdB,dBdBdBdBdBdBdBdBdBdBdBdBdBdBdBdBdC,cCcCdCdCeBeBdBdBdBdBdBdB,cBdBdBdBdBeBeBeBeBeBeBdBdB,dBdBdBdBdBdBeBdBdBdBdBdBdBdBdBdBdBdB,dBdBdBdBdBdBdBdBdBdBdBcCcCcC,dBdBdBdBdBdBdBdBdBdBdBdBdBdB,dBdBdBdBdBdBdBdBdBdBdBdBdBdB,dBdBdBdBdBdBdBdBdBdBdBdBdBdBdBdBdBdBdBdBdB,eBdBdBdBdBcBdBcAcBcBcBcBcBcBcB,dBdBdBcAcAcAcAcBcBcBcBcBcBcBcBcBcAcAcAcAeBeB,x,bBcBcBcBcBcBcBcBcBdBcBcBcA,cCcCcCcCcCcCcAcAcAcAcCcCcCcCcC,cCcCcCdBdBdBdBdBdBdBdBeBeBeBeB,cBcAcAcAcAcAcAcAcAcAcAcAcAcAcAcAcAcAcA
S15,super,F02,famous,C,52,818,TRUE,s012,bBcBcBcBcBcBcBcBcBdBcBcBcA,dBdBdBdBdBdBdBdBdBdBdBdBdBdBdBdBdC,cCcCdCdCeBeBdBdBdBdBdBdB,cBdBdBdBdBeBeBeBeBeBeBdBdB,dBdBdBdBdBdBeBdBdBdBdBdBdBdBdBdBdBdB,dBdBdBdBdBdBdBdBdBdBdBcCcCcC,dBdBdBdBdBdBdBdBdBdBdBdBdBdB,dBdBdBdBdBdBdBdBdBdBdBdBdBdB,dBdBdBdBdBdBdBdBdBdBdBdBdBdBdBdBdBdBdBdBdB,eBdBdBdBdBcBdBcAcBcBcBcBcBcBcB,dBdBdBcAcAcAcAcBcBcBcBcBcBcBcBcBcAcAcAcAeBeB,cAcAcAcAcBcBcBcBdBdBdBdB,x,cCcCcCcCcCcCcAcAcAcAcCcCcCcCcC,cCcCcCdBdBdBdBdBdBdBdBeBeBeBeB,cBcAcAcAcAcAcAcAcAcAcAcAcAcAcAcAcAcAcA
S17,super,F02,famous,C,52,949,TRUE,s013,cCcCcCcCcCcCcAcAcAcAcCcCcCcCcC,dBdBdBdBdBdBdBdBdBdBdBdBdBdBdBdBdC,cCcCdCdCeBeBdBdBdBdBdBdB,cBdBdBdBdBeBeBeBeBeBeBdBdB,dBdBdBdBdBdBeBdBdBdBdBdBdBdBdBdBdBdB,dBdBdBdBdBdBdBdBdBdBdBcCcCcC,dBdBdBdBdBdBdBdBdBdBdBdBdBdB,dBdBdBdBdBdBdBdBdBdBdBdBdBdB,dBdBdBdBdBdBdBdBdBdBdBdBdBdBdBdBdBdBdBdBdB,eBdBdBdBdBcBdBcAcBcBcBcBcBcBcB,dBdBdBcAcAcAcAcBcBcBcBcBcBcBcBcBcAcAcAcAeBeB,cAcAcAcAcBcBcBcBdBdBdBdB,bBcBcBcBcBcBcBcBcBdBcBcBcA,x,cCcCcCdBdBdBdBdBdBdBdBeBeBeBeB,cBcAcAcAcAcAcAcAcAcAcAcAcAcAcAcAcAcAcA
S90,super,F02,famous,C,35,879,TRUE,s014,cCcCcCdBdBdBdBdBdBdBdBeBeBeBeB,dBdBdBdBdBdBdBdBdBdBdBdBdBdBdBdBdC,cCcCdCdCeBeBdBdBdBdBdBdB,cBdBdBdBdBeBeBeBeBeBeBdBdB,dBdBdBdBdBdBeBdBdBdBdBdBdBdBdBdBdBdB,dBdBdBdBdBdBdBdBdBdBdBcCcCcC,dBdBdBdBdBdBdBdBdBdBdBdBdBdB,dBdBdBdBdBdBdBdBdBdBdBdBdBdB,dBdBdBdBdBdBdBdBdBdBdBdBdBdBdBdBdBdBdBdBdB,eBdBdBdBdBcBdBcAcBcBcBcBcBcBcB,dBdBdBcAcAcAcAcBcBcBcBcBcBcBcBcBcAcAcAcAeBeB,cAcAcAcAcBcBcBcBdBdBdBdB,bBcBcBcBcBcBcBcBcBdBcBcBcA,cCcCcCcCcCcCcAcAcAcAcCcCcCcCcC,x,cBcAcAcAcAcAcAcAcAcAcAcAcAcAcAcAcAcAcA
S91,super,F02,famous,C,4,1095,TRUE,s015,cBcAcAcAcAcAcAcAcAcAcAcAcAcAcAcAcAcAcA,dBdBdBdBdBdBdBdBdBdBdBdBdBdBdBdBdC,cCcCdCdCeBeBdBdBdBdBdBdB,cBdBdBdBdBeBeBeBeBeBeBdBdB,dBdBdBdBdBdBeBdBdBdBdBdBdBdBdBdBdBdB,dBdBdBdBdBdBdBdBdBdBdBcCcCcC,dBdBdBdBdBdBdBdBdBdBdBdBdBdB,dBdBdBdBdBdBdBdBdBdBdBdBdBdB,dBdBdBdBdBdBdBdBdBdBdBdBdBdBdBdBdBdBdBdBdB,eBdBdBdBdBcBdBcAcBcBcBcBcBcBcB,dBdBdBcAcAcAcAcBcBcBcBcBcBcBcBcBcAcAcAcAeBeB,cAcAcAcAcBcBcBcBdBdBdBdB,bBcBcBcBcBcBcBcBcBdBcBcBcA,cCcCcCcCcCcCcAcAcAcAcCcCcCcCcC,cCcCcCdBdBdBdBdBdBdBdBeBeBeBeB,x
S01,super,F02,famous,D,9,1052,TRUE,s001,dCdCdCdCdCdCdBdBdBdBdBdBdBdBdBdBdBdBdBdBdBcC,x,dBdBdBdBdBdBdBdBdBdBdBdB,dBdBdBdBdBdBdBdBdBdBcCcCcC,dCdCdCdCdCdCdBdBdBdBdBcCcCcC,dBdBdBcCcCcAcAcAcAcAcAcAcA,dCdCdCcBcBcBcBcBdBdBdBdBdBdBdB,dBdBdBdBdBdBdBdBdBdBdBdB,dBdBdBdBdBdBdBdBdBdBdBdBcCcCcCcCcCcC,dBdBdBcCcCcCcCcBcBcBcBcCcCcCcCcBcBcB,dBdBdBcAcAcAcAcCcCcCcCcCcCcAcAcAcAcAcAcAdBdBdBdBdBdBdBdB,dBdBdBdBdBdBdBdBdBdBdBdBdB,eBeBdBdBdBdBdBdBdBdBdBdBdBdB,dCdCcCcCcCcCcBcBcBcBcCcCcCcCcCcC,dBdBdBdBdBdBdBdBeBdBdBdB,dBdBdBdBcAcAcAcAcAcBcAcBcCdBdBdBdBdBdBdBeB
S02,super,F02,famous,D,84,586,TRUE,s002,dBdBdBdBdBdBdBdBdBdBdBdB,dCdCdCdCdCdCdBdBdBdBdBdBdBdBdBdBdBdBdBdBdBcC,x,dBdBdBdBdBdBdBdBdBdBcCcCcC,dCdCdCdCdCdCdBdBdBdBdBcCcCcC,dBdBdBcCcCcAcAcAcAcAcAcAcA,dCdCdCcBcBcBcBcBdBdBdBdBdBdBdB,dBdBdBdBdBdBdBdBdBdBdBdB,dBdBdBdBdBdBdBdBdBdBdBdBcCcCcCcCcCcC,dBdBdBcCcCcCcCcBcBcBcBcCcCcCcCcBcBcB,dBdBdBcAcAcAcAcCcCcCcCcCcCcAcAcAcAcAcAcAdBdBdBdBdBdBdBdB,dBdBdBdBdBdBdBdBdBdBdBdBdB,eBeBdBdBdBdBdBdBdBdBdBdBdBdB,dCdCcCcCcCcCcBcBcBcBcCcCcCcCcCcC,dBdBdBdBdBdBdBdBeBdBdBdB,dBdBdBdBcAcAcAcAcAcBcAcBcCdBdBdBdBdBdBdBeB
S03,super,F02,famous,D,148,632,TRUE,s003,dBdBdBdBdBdBdBdBdBdBcCcCcC,dCdCdCdCdCdCdBdBdBdBdBdBdBdBdBdBdBdBdBdBdBcC,dBdBdBdBdBdBdBdBdBdBdBdB,x,dCdCdCdCdCdCdBdBdBdBdBcCcCcC,dBdBdBcCcCcAcAcAcAcAcAcAcA,dCdCdCcBcBcBcBcBdBdBdBdBdBdBdB,dBdBdBdBdBdBdBdBdBdBdBdB,dBdBdBdBdBdBdBdBdBdBdBdBcCcCcCcCcCcC,dBdBdBcCcCcCcCcBcBcBcBcCcCcCcCcBcBcB,dBdBdBcAcAcAcAcCcCcCcCcCcCcAcAcAcAcAcAcAdBdBdBdBdBdBdBdB,dBdBdBdBdBdBdBdBdBdBdBdBdB,eBeBdBdBdBdBdBdBdBdBdBdBdBdB,dCdCcCcCcCcCcBcBcBcBcCcCcCcCcCcC,dBdBdBdBdBdBdBdBeBdBdBdB,dBdBdBdBcAcAcAcAcAcBcAcBcCdBdBdBdBdBdBdBeB
S04,super,F02,famous,D,116,913,TRUE,s004,dCdCdCdCdCdCdBdBdBdBdBcCcCcC,dCdCdCdCdCdCdBdBdBdBdBdBdBdBdBdBdBdBdBdBdBcC,dBdBdBdBdBdBdBdBdBdBdBdB,dBdBdBdBdBdBdBdBdBdBcCcCcC,x,dBdBdBcCcCcAcAcAcAcAcAcAcA,dCdCdCcBcBcBcBcBdBdBdBdBdBdBdB,dBdBdBdBdBdBdBdBdBdBdBdB,dBdBdBdBdBdBdBdBdBdBdBdBcCcCcCcCcCcC,dBdBdBcCcCcCcCcBcBcBcBcCcCcCcCcBcBcB,dBdBdBcAcAcAcAcCcCcCcCcCcCcAcAcAcAcAcAcAdBdBdBdBdBdBdBdB,dBdBdBdBdBdBdBdBdBdBdBdBdB,eBeBdBdBdBdBdBdBdBdBdBdBdBdB,dCdCcCcCcCcCcBcBcBcBcCcCcCcCcCcC,dBdBdBdBdBdBdBdBeBdBdBdB,dBdBdBdBcAcAcAcAcAcBcAcBcCdBdBdBdBdBdBdBeB
S07,super,F02,famous,D,139,987,TRUE,s005,dBdBdBcCcCcAcAcAcAcAcAcAcA,dCdCdCdCdCdCdBdBdBdBdBdBdBdBdBdBdBdBdBdBdBcC,dBdBdBdBdBdBdBdBdBdBdBdB,dBdBdBdBdBdBdBdBdBdBcCcCcC,dCdCdCdCdCdCdBdBdBdBdBcCcCcC,x,dCdCdCcBcBcBcBcBdBdBdBdBdBdBdB,dBdBdBdBdBdBdBdBdBdBdBdB,dBdBdBdBdBdBdBdBdBdBdBdBcCcCcCcCcCcC,dBdBdBcCcCcCcCcBcBcBcBcCcCcCcCcBcBcB,dBdBdBcAcAcAcAcCcCcCcCcCcCcAcAcAcAcAcAcAdBdBdBdBdBdBdBdB,dBdBdBdBdBdBdBdBdBdBdBdBdB,eBeBdBdBdBdBdBdBdBdBdBdBdBdB,dCdCcCcCcCcCcBcBcBcBcCcCcCcCcCcC,dBdBdBdBdBdBdBdBeBdBdBdB,dBdBdBdBcAcAcAcAcAcBcAcBcCdBdBdBdBdBdBdBeB
S09,super,F02,famous,D,110,935,TRUE,s006,dCdCdCcBcBcBcBcBdBdBdBdBdBdBdB,dCdCdCdCdCdCdBdBdBdBdBdBdBdBdBdBdBdBdBdBdBcC,dBdBdBdBdBdBdBdBdBdBdBdB,dBdBdBdBdBdBdBdBdBdBcCcCcC,dCdCdCdCdCdCdBdBdBdBdBcCcCcC,dBdBdBcCcCcAcAcAcAcAcAcAcA,x,dBdBdBdBdBdBdBdBdBdBdBdB,dBdBdBdBdBdBdBdBdBdBdBdBcCcCcCcCcCcC,dBdBdBcCcCcCcCcBcBcBcBcCcCcCcCcBcBcB,dBdBdBcAcAcAcAcCcCcCcCcCcCcAcAcAcAcAcAcAdBdBdBdBdBdBdBdB,dBdBdBdBdBdBdBdBdBdBdBdBdB,eBeBdBdBdBdBdBdBdBdBdBdBdBdB,dCdCcCcCcCcCcBcBcBcBcCcCcCcCcCcC,dBdBdBdBdBdBdBdBeBdBdBdB,dBdBdBdBcAcAcAcAcAcBcAcBcCdBdBdBdBdBdBdBeB
S10,super,F02,famous,D,62,588,TRUE,s007,dBdBdBdBdBdBdBdBdBdBdBdB,dCdCdCdCdCdCdBdBdBdBdBdBdBdBdBdBdBdBdBdBdBcC,dBdBdBdBdBdBdBdBdBdBdBdB,dBdBdBdBdBdBdBdBdBdBcCcCcC,dCdCdCdCdCdCdBdBdBdBdBcCcCcC,dBdBdBcCcCcAcAcAcAcAcAcAcA,dCdCdCcBcBcBcBcBdBdBdBdBdBdBdB,x,dBdBdBdBdBdBdBdBdBdBdBdBcCcCcCcCcCcC,dBdBdBcCcCcCcCcBcBcBcBcCcCcCcCcBcBcB,dBdBdBcAcAcAcAcCcCcCcCcCcCcAcAcAcAcAcAcAdBdBdBdBdBdBdBdB,dBdBdBdBdBdBdBdBdBdBdBdBdB,eBeBdBdBdBdBdBdBdBdBdBdBdBdB,dCdCcCcCcCcCcBcBcBcBcCcCcCcCcCcC,dBdBdBdBdBdBdBdBeBdBdBdB,dBdBdBdBcAcAcAcAcAcBcAcBcCdBdBdBdBdBdBdBeB
S11,super,F02,famous,D,42,854,TRUE,s008,dBdBdBdBdBdBdBdBdBdBdBdBcCcCcCcCcCcC,dCdCdCdCdCdCdBdBdBdBdBdBdBdBdBdBdBdBdBdBdBcC,dBdBdBdBdBdBdBdBdBdBdBdB,dBdBdBdBdBdBdBdBdBdBcCcCcC,dCdCdCdCdCdCdBdBdBdBdBcCcCcC,dBdBdBcCcCcAcAcAcAcAcAcAcA,dCdCdCcBcBcBcBcBdBdBdBdBdBdBdB,dBdBdBdBdBdBdBdBdBdBdBdB,x,dBdBdBcCcCcCcCcBcBcBcBcCcCcCcCcBcBcB,dBdBdBcAcAcAcAcCcCcCcCcCcCcAcAcAcAcAcAcAdBdBdBdBdBdBdBdB,dBdBdBdBdBdBdBdBdBdBdBdBdB,eBeBdBdBdBdBdBdBdBdBdBdBdBdB,dCdCcCcCcCcCcBcBcBcBcCcCcCcCcCcC,dBdBdBdBdBdBdBdBeBdBdBdB,dBdBdBdBcAcAcAcAcAcBcAcBcCdBdBdBdBdBdBdBeB
S12,super,F02,famous,D,87,870,TRUE,s009,dBdBdBcCcCcCcCcBcBcBcBcCcCcCcCcBcBcB,dCdCdCdCdCdCdBdBdBdBdBdBdBdBdBdBdBdBdBdBdBcC,dBdBdBdBdBdBdBdBdBdBdBdB,dBdBdBdBdBdBdBdBdBdBcCcCcC,dCdCdCdCdCdCdBdBdBdBdBcCcCcC,dBdBdBcCcCcAcAcAcAcAcAcAcA,dCdCdCcBcBcBcBcBdBdBdBdBdBdBdB,dBdBdBdBdBdBdBdBdBdBdBdB,dBdBdBdBdBdBdBdBdBdBdBdBcCcCcCcCcCcC,x,dBdBdBcAcAcAcAcCcCcCcCcCcCcAcAcAcAcAcAcAdBdBdBdBdBdBdBdB,dBdBdBdBdBdBdBdBdBdBdBdBdB,eBeBdBdBdBdBdBdBdBdBdBdBdBdB,dCdCcCcCcCcCcBcBcBcBcCcCcCcCcCcC,dBdBdBdBdBdBdBdBeBdBdBdB,dBdBdBdBcAcAcAcAcAcBcAcBcCdBdBdBdBdBdBdBeB
S13,super,F02,famous,D,109,1394,TRUE,s010,dBdBdBcAcAcAcAcCcCcCcCcCcCcAcAcAcAcAcAcAdBdBdBdBdBdBdBdB,dCdCdCdCdCdCdBdBdBdBdBdBdBdBdBdBdBdBdBdBdBcC,dBdBdBdBdBdBdBdBdBdBdBdB,dBdBdBdBdBdBdBdBdBdBcCcCcC,dCdCdCdCdCdCdBdBdBdBdBcCcCcC,dBdBdBcCcCcAcAcAcAcAcAcAcA,dCdCdCcBcBcBcBcBdBdBdBdBdBdBdB,dBdBdBdBdBdBdBdBdBdBdBdB,dBdBdBdBdBdBdBdBdBdBdBdBcCcCcCcCcCcC,dBdBdBcCcCcCcCcBcBcBcBcCcCcCcCcBcBcB,x,dBdBdBdBdBdBdBdBdBdBdBdBdB,eBeBdBdBdBdBdBdBdBdBdBdBdBdB,dCdCcCcCcCcCcBcBcBcBcCcCcCcCcCcC,dBdBdBdBdBdBdBdBeBdBdBdB,dBdBdBdBcAcAcAcAcAcBcAcBcCdBdBdBdBdBdBdBeB
S14,super,F02,famous,D,154,643,TRUE,s011,dBdBdBdBdBdBdBdBdBdBdBdBdB,dCdCdCdCdCdCdBdBdBdBdBdBdBdBdBdBdBdBdBdBdBcC,dBdBdBdBdBdBdBdBdBdBdBdB,dBdBdBdBdBdBdBdBdBdBcCcCcC,dCdCdCdCdCdCdBdBdBdBdBcCcCcC,dBdBdBcCcCcAcAcAcAcAcAcAcA,dCdCdCcBcBcBcBcBdBdBdBdBdBdBdB,dBdBdBdBdBdBdBdBdBdBdBdB,dBdBdBdBdBdBdBdBdBdBdBdBcCcCcCcCcCcC,dBdBdBcCcCcCcCcBcBcBcBcCcCcCcCcBcBcB,dBdBdBcAcAcAcAcCcCcCcCcCcCcAcAcAcAcAcAcAdBdBdBdBdBdBdBdB,x,eBeBdBdBdBdBdBdBdBdBdBdBdBdB,dCdCcCcCcCcCcBcBcBcBcCcCcCcCcCcC,dBdBdBdBdBdBdBdBeBdBdBdB,dBdBdBdBcAcAcAcAcAcBcAcBcCdBdBdBdBdBdBdBeB
S15,super,F02,famous,D,91,882,TRUE,s012,eBeBdBdBdBdBdBdBdBdBdBdBdBdB,dCdCdCdCdCdCdBdBdBdBdBdBdBdBdBdBdBdBdBdBdBcC,dBdBdBdBdBdBdBdBdBdBdBdB,dBdBdBdBdBdBdBdBdBdBcCcCcC,dCdCdCdCdCdCdBdBdBdBdBcCcCcC,dBdBdBcCcCcAcAcAcAcAcAcAcA,dCdCdCcBcBcBcBcBdBdBdBdBdBdBdB,dBdBdBdBdBdBdBdBdBdBdBdB,dBdBdBdBdBdBdBdBdBdBdBdBcCcCcCcCcCcC,dBdBdBcCcCcCcCcBcBcBcBcCcCcCcCcBcBcB,dBdBdBcAcAcAcAcCcCcCcCcCcCcAcAcAcAcAcAcAdBdBdBdBdBdBdBdB,dBdBdBdBdBdBdBdBdBdBdBdBdB,x,dCdCcCcCcCcCcBcBcBcBcCcCcCcCcCcC,dBdBdBdBdBdBdBdBeBdBdBdB,dBdBdBdBcAcAcAcAcAcBcAcBcCdBdBdBdBdBdBdBeB
S17,super,F02,famous,D,49,1065,TRUE,s013,dCdCcCcCcCcCcBcBcBcBcCcCcCcCcCcC,dCdCdCdCdCdCdBdBdBdBdBdBdBdBdBdBdBdBdBdBdBcC,dBdBdBdBdBdBdBdBdBdBdBdB,dBdBdBdBdBdBdBdBdBdBcCcCcC,dCdCdCdCdCdCdBdBdBdBdBcCcCcC,dBdBdBcCcCcAcAcAcAcAcAcAcA,dCdCdCcBcBcBcBcBdBdBdBdBdBdBdB,dBdBdBdBdBdBdBdBdBdBdBdB,dBdBdBdBdBdBdBdBdBdBdBdBcCcCcCcCcCcC,dBdBdBcCcCcCcCcBcBcBcBcCcCcCcCcBcBcB,dBdBdBcAcAcAcAcCcCcCcCcCcCcAcAcAcAcAcAcAdBdBdBdBdBdBdBdB,dBdBdBdBdBdBdBdBdBdBdBdBdB,eBeBdBdBdBdBdBdBdBdBdBdBdBdB,x,dBdBdBdBdBdBdBdBeBdBdBdB,dBdBdBdBcAcAcAcAcAcBcAcBcCdBdBdBdBdBdBdBeB
S90,super,F02,famous,D,65,840,TRUE,s014,dBdBdBdBdBdBdBdBeBdBdBdB,dCdCdCdCdCdCdBdBdBdBdBdBdBdBdBdBdBdBdBdBdBcC,dBdBdBdBdBdBdBdBdBdBdBdB,dBdBdBdBdBdBdBdBdBdBcCcCcC,dCdCdCdCdCdCdBdBdBdBdBcCcCcC,dBdBdBcCcCcAcAcAcAcAcAcAcA,dCdCdCcBcBcBcBcBdBdBdBdBdBdBdB,dBdBdBdBdBdBdBdBdBdBdBdB,dBdBdBdBdBdBdBdBdBdBdBdBcCcCcCcCcCcC,dBdBdBcCcCcCcCcBcBcBcBcCcCcCcCcBcBcB,dBdBdBcAcAcAcAcCcCcCcCcCcCcAcAcAcAcAcAcAdBdBdBdBdBdBdBdB,dBdBdBdBdBdBdBdBdBdBdBdBdB,eBeBdBdBdBdBdBdBdBdBdBdBdBdB,dCdCcCcCcCcCcBcBcBcBcCcCcCcCcCcC,x,dBdBdBdBcAcAcAcAcAcBcAcBcCdBdBdBdBdBdBdBeB
S91,super,F02,famous,D,48,1170,TRUE,s015,dBdBdBdBcAcAcAcAcAcBcAcBcCdBdBdBdBdBdBdBeB,dCdCdCdCdCdCdBdBdBdBdBdBdBdBdBdBdBdBdBdBdBcC,dBdBdBdBdBdBdBdBdBdBdBdB,dBdBdBdBdBdBdBdBdBdBcCcCcC,dCdCdCdCdCdCdBdBdBdBdBcCcCcC,dBdBdBcCcCcAcAcAcAcAcAcAcA,dCdCdCcBcBcBcBcBdBdBdBdBdBdBdB,dBdBdBdBdBdBdBdBdBdBdBdB,dBdBdBdBdBdBdBdBdBdBdBdBcCcCcCcCcCcC,dBdBdBcCcCcCcCcBcBcBcBcCcCcCcCcBcBcB,dBdBdBcAcAcAcAcCcCcCcCcCcCcAcAcAcAcAcAcAdBdBdBdBdBdBdBdB,dBdBdBdBdBdBdBdBdBdBdBdBdB,eBeBdBdBdBdBdBdBdBdBdBdBdBdB,dCdCcCcCcCcCcBcBcBcBcCcCcCcCcCcC,dBdBdBdBdBdBdBdBeBdBdBdB,x
S01,super,F03,famous,A,120,1023,TRUE,s001,dBdBdBdBdBdBdBdBcCcCcCcCcCcCcCcCcA,x,bBbBbBeBeBeBdBdBdBdBdBdBdBdB,cAcAcAdBdBdBdBdBdBdBdBdBdB,cCdBcCdBdBdBdBdBdBdBdBdBdB,cAcBcBcBcBcCcCcCcCcCcCcC,cAcAcAcAcCcCcCcCcCcCcCcCcC,dBdBdBdBdBdBdBdBdBdBdBdBdBdBdB,dBdBdBdBdBcCcCcCcCcCcCcCcCcCcCcCcC,cBcBcBcBcCcCcCcCcAcAcAcAcCcCcCcC,dBdBdBcBcBcBcAcAcAcAcCcCcCcCcCcAcAcAcAcAcAdBdBdBdBdBdBcAcAcAcAcBcBcB,dAdAdAdAdBdBdBdBdBdBdBdBdB,dBdBdBdBdBdBdBdBdBdBdBdB,cAcAdBcCcCcCcCcCcBcBcBcAcAcAcA,cAcAcAcAdBdBdBdBdBdBdBdB,cCcCcCcAcAcAcAcAcAcAcAcAcAcCcCcCcCcCcCcCcC
S02,super,F03,famous,A,65,675,TRUE,s002,bBbBbBeBeBeBdBdBdBdBdBdBdBdB,dBdBdBdBdBdBdBdBcCcCcCcCcCcCcCcCcA,x,cAcAcAdBdBdBdBdBdBdBdBdBdB,cCdBcCdBdBdBdBdBdBdBdBdBdB,cAcBcBcBcBcCcCcCcCcCcCcC,cAcAcAcAcCcCcCcCcCcCcCcCcC,dBdBdBdBdBdBdBdBdBdBdBdBdBdBdB,dBdBdBdBdBcCcCcCcCcCcCcCcCcCcCcCcC,cBcBcBcBcCcCcCcCcAcAcAcAcCcCcCcC,dBdBdBcBcBcBcAcAcAcAcCcCcCcCcCcAcAcAcAcAcAdBdBdBdBdBdBcAcAcAcAcBcBcB,dAdAdAdAdBdBdBdBdBdBdBdBdB,dBdBdBdBdBdBdBdBdBdBdBdB,cAcAdBcCcCcCcCcCcBcBcBcAcAcAcA,cAcAcAcAdBdBdBdBdBdBdBdB,cCcCcCcAcAcAcAcAcAcAcAcAcAcCcCcCcCcCcCcCcC
S03,super,F03,famous,A,124,786,TRUE,s003,cAcAcAdBdBdBdBdBdBdBdBdBdB,dBdBdBdBdBdBdBdBcCcCcCcCcCcCcCcCcA,bBbBbBeBeBeBdBdBdBdBdBdBdBdB,x,cCdBcCdBdBdBdBdBdBdBdBdBdB,cAcBcBcBcBcCcCcCcCcCcCcC,cAcAcAcAcCcCcCcCcCcCcCcCcC,dBdBdBdBdBdBdBdBdBdBdBdBdBdBdB,dBdBdBdBdBcCcCcCcCcCcCcCcCcCcCcCcC,cBcBcBcBcCcCcCcCcAcAcAcAcCcCcCcC,dBdBdBcBcBcBcAcAcAcAcCcCcCcCcCcAcAcAcAcAcAdBdBdBdBdBdBcAcAcAcAcBcBcB,dAdAdAdAdBdBdBdBdBdBdBdBdB,dBdBdBdBdBdBdBdBdBdBdBdB,cAcAdBcCcCcCcCcCcBcBcBcAcAcAcA,cAcAcAcAdBdBdBdBdBdBdBdB,cCcCcCcAcAcAcAcAcAcAcAcAcAcCcCcCcCcCcCcCcC
S04,super,F03,famous,A,94,865,TRUE,s004,cCdBcCdBdBdBdBdBdBdBdBdBdB,dBdBdBdBdBdBdBdBcCcCcCcCcCcCcCcCcA,bBbBbBeBeBeBdBdBdBdBdBdBdBdB,cAcAcAdBdBdBdBdBdBdBdBdBdB,x,cAcBcBcBcBcCcCcCcCcCcCcC,cAcAcAcAcCcCcCcCcCcCcCcCcC,dBdBdBdBdBdBdBdBdBdBdBdBdBdBdB,dBdBdBdBdBcCcCcCcCcCcCcCcCcCcCcCcC,cBcBcBcBcCcCcCcCcAcAcAcAcCcCcCcC,dBdBdBcBcBcBcAcAcAcAcCcCcCcCcCcAcAcAcAcAcAdBdBdBdBdBdBcAcAcAcAcBcBcB,dAdAdAdAdBdBdBdBdBdBdBdBdB,dBdBdBdBdBdBdBdBdBdBdBdB,cAcAdBcCcCcCcCcCcBcBcBcAcAcAcA,cAcAcAcAdBdBdBdBdBdBdBdB,cCcCcCcAcAcAcAcAcAcAcAcAcAcCcCcCcCcCcCcCcC
S07,super,F03,famous,A,86,767,TRUE,s005,cAcBcBcBcBcCcCcCcCcCcCcC,dBdBdBdBdBdBdBdBcCcCcCcCcCcCcCcCcA,bBbBbBeBeBeBdBdBdBdBdBdBdBdB,cAcAcAdBdBdBdBdBdBdBdBdBdB,cCdBcCdBdBdBdBdBdBdBdBdBdB,x,cAcAcAcAcCcCcCcCcCcCcCcCcC,dBdBdBdBdBdBdBdBdBdBdBdBdBdBdB,dBdBdBdBdBcCcCcCcCcCcCcCcCcCcCcCcC,cBcBcBcBcCcCcCcCcAcAcAcAcCcCcCcC,dBdBdBcBcBcBcAcAcAcAcCcCcCcCcCcAcAcAcAcAcAdBdBdBdBdBdBcAcAcAcAcBcBcB,dAdAdAdAdBdBdBdBdBdBdBdBdB,dBdBdBdBdBdBdBdBdBdBdBdB,cAcAdBcCcCcCcCcCcBcBcBcAcAcAcA,cAcAcAcAdBdBdBdBdBdBdBdB,cCcCcCcAcAcAcAcAcAcAcAcAcAcCcCcCcCcCcCcCcC
S09,super,F03,famous,A,133,811,TRUE,s006,cAcAcAcAcCcCcCcCcCcCcCcCcC,dBdBdBdBdBdBdBdBcCcCcCcCcCcCcCcCcA,bBbBbBeBeBeBdBdBdBdBdBdBdBdB,cAcAcAdBdBdBdBdBdBdBdBdBdB,cCdBcCdBdBdBdBdBdBdBdBdBdB,cAcBcBcBcBcCcCcCcCcCcCcC,x,dBdBdBdBdBdBdBdBdBdBdBdBdBdBdB,dBdBdBdBdBcCcCcCcCcCcCcCcCcCcCcCcC,cBcBcBcBcCcCcCcCcAcAcAcAcCcCcCcC,dBdBdBcBcBcBcAcAcAcAcCcCcCcCcCcAcAcAcAcAcAdBdBdBdBdBdBcAcAcAcAcBcBcB,dAdAdAdAdBdBdBdBdBdBdBdBdB,dBdBdBdBdBdBdBdBdBdBdBdB,cAcAdBcCcCcCcCcCcBcBcBcAcAcAcA,cAcAcAcAdBdBdBdBdBdBdBdB,cCcCcCcAcAcAcAcAcAcAcAcAcAcCcCcCcCcCcCcCcC
S10,super,F03,famous,A,69,745,TRUE,s007,dBdBdBdBdBdBdBdBdBdBdBdBdBdBdB,dBdBdBdBdBdBdBdBcCcCcCcCcCcCcCcCcA,bBbBbBeBeBeBdBdBdBdBdBdBdBdB,cAcAcAdBdBdBdBdBdBdBdBdBdB,cCdBcCdBdBdBdBdBdBdBdBdBdB,cAcBcBcBcBcCcCcCcCcCcCcC,cAcAcAcAcCcCcCcCcCcCcCcCcC,x,dBdBdBdBdBcCcCcCcCcCcCcCcCcCcCcCcC,cBcBcBcBcCcCcCcCcAcAcAcAcCcCcCcC,dBdBdBcBcBcBcAcAcAcAcCcCcCcCcCcAcAcAcAcAcAdBdBdBdBdBdBcAcAcAcAcBcBcB,dAdAdAdAdBdBdBdBdBdBdBdBdB,dBdBdBdBdBdBdBdBdBdBdBdB,cAcAdBcCcCcCcCcCcBcBcBcAcAcAcA,cAcAcAcAdBdBdBdBdBdBdBdB,cCcCcCcAcAcAcAcAcAcAcAcAcAcCcCcCcCcCcCcCcC
S11,super,F03,famous,A,129,811,TRUE,s008,dBdBdBdBdBcCcCcCcCcCcCcCcCcCcCcCcC,dBdBdBdBdBdBdBdBcCcCcCcCcCcCcCcCcA,bBbBbBeBeBeBdBdBdBdBdBdBdBdB,cAcAcAdBdBdBdBdBdBdBdBdBdB,cCdBcCdBdBdBdBdBdBdBdBdBdB,cAcBcBcBcBcCcCcCcCcCcCcC,cAcAcAcAcCcCcCcCcCcCcCcCcC,dBdBdBdBdBdBdBdBdBdBdBdBdBdBdB,x,cBcBcBcBcCcCcCcCcAcAcAcAcCcCcCcC,dBdBdBcBcBcBcAcAcAcAcCcCcCcCcCcAcAcAcAcAcAdBdBdBdBdBdBcAcAcAcAcBcBcB,dAdAdAdAdBdBdBdBdBdBdBdBdB,dBdBdBdBdBdBdBdBdBdBdBdB,cAcAdBcCcCcCcCcCcBcBcBcAcAcAcA,cAcAcAcAdBdBdBdBdBdBdBdB,cCcCcCcAcAcAcAcAcAcAcAcAcAcCcCcCcCcCcCcCcC
S12,super,F03,famous,A,137,753,TRUE,s009,cBcBcBcBcCcCcCcCcAcAcAcAcCcCcCcC,dBdBdBdBdBdBdBdBcCcCcCcCcCcCcCcCcA,bBbBbBeBeBeBdBdBdBdBdBdBdBdB,cAcAcAdBdBdBdBdBdBdBdBdBdB,cCdBcCdBdBdBdBdBdBdBdBdBdB,cAcBcBcBcBcCcCcCcCcCcCcC,cAcAcAcAcCcCcCcCcCcCcCcCcC,dBdBdBdBdBdBdBdBdBdBdBdBdBdBdB,dBdBdBdBdBcCcCcCcCcCcCcCcCcCcCcCcC,x,dBdBdBcBcBcBcAcAcAcAcCcCcCcCcCcAcAcAcAcAcAdBdBdBdBdBdBcAcAcAcAcBcBcB,dAdAdAdAdBdBdBdBdBdBdBdBdB,dBdBdBdBdBdBdBdBdBdBdBdB,cAcAdBcCcCcCcCcCcBcBcBcAcAcAcA,cAcAcAcAdBdBdBdBdBdBdBdB,cCcCcCcAcAcAcAcAcAcAcAcAcAcCcCcCcCcCcCcCcC
S13,super,F03,famous,A,13,1688,TRUE,s010,dBdBdBcBcBcBcAcAcAcAcCcCcCcCcCcAcAcAcAcAcAdBdBdBdBdBdBcAcAcAcAcBcBcB,dBdBdBdBdBdBdBdBcCcCcCcCcCcCcCcCcA,bBbBbBeBeBeBdBdBdBdBdBdBdBdB,cAcAcAdBdBdBdBdBdBdBdBdBdB,cCdBcCdBdBdBdBdBdBdBdBdBdB,cAcBcBcBcBcCcCcCcCcCcCcC,cAcAcAcAcCcCcCcCcCcCcCcCcC,dBdBdBdBdBdBdBdBdBdBdBdBdBdBdB,dBdBdBdBdBcCcCcCcCcCcCcCcCcCcCcCcC,cBcBcBcBcCcCcCcCcAcAcAcAcCcCcCcC,x,dAdAdAdAdBdBdBdBdBdBdBdBdB,dBdBdBdBdBdBdBdBdBdBdBdB,cAcAdBcCcCcCcCcCcBcBcBcAcAcAcA,cAcAcAcAdBdBdBdBdBdBdBdB,cCcCcCcAcAcAcAcAcAcAcAcAcAcCcCcCcCcCcCcCcC
S14,super,F03,famous,A,145,634,TRUE,s011,dAdAdAdAdBdBdBdBdBdBdBdBdB,dBdBdBdBdBdBdBdBcCcCcCcCcCcCcCcCcA,bBbBbBeBeBeBdBdBdBdBdBdBdBdB,cAcAcAdBdBdBdBdBdBdBdBdBdB,cCdBcCdBdBdBdBdBdBdBdBdBdB,cAcBcBcBcBcCcCcCcCcCcCcC,cAcAcAcAcCcCcCcCcCcCcCcCcC,dBdBdBdBdBdBdBdBdBdBdBdBdBdBdB,dBdBdBdBdBcCcCcCcCcCcCcCcCcCcCcCcC,cBcBcBcBcCcCcCcCcAcAcAcAcCcCcCcC,dBdBdBcBcBcBcAcAcAcAcCcCcCcCcCcAcAcAcAcAcAdBdBdBdBdBdBcAcAcAcAcBcBcB,x,dBdBdBdBdBdBdBdBdBdBdBdB,cAcAdBcCcCcCcCcCcBcBcBcAcAcAcA,cAcAcAcAdBdBdBdBdBdBdBdB,cCcCcCcAcAcAcAcAcAcAcAcAcAcCcCcCcCcCcCcCcC
S15,super,F03,famous,A,111,883,TRUE,s012,dBdBdBdBdBdBdBdBdBdBdBdB,dBdBdBdBdBdBdBdBcCcCcCcCcCcCcCcCcA,bBbBbBeBeBeBdBdBdBdBdBdBdBdB,cAcAcAdBdBdBdBdBdBdBdBdBdB,cCdBcCdBdBdBdBdBdBdBdBdBdB,cAcBcBcBcBcCcCcCcCcCcCcC,cAcAcAcAcCcCcCcCcCcCcCcCcC,dBdBdBdBdBdBdBdBdBdBdBdBdBdBdB,dBdBdBdBdBcCcCcCcCcCcCcCcCcCcCcCcC,cBcBcBcBcCcCcCcCcAcAcAcAcCcCcCcC,dBdBdBcBcBcBcAcAcAcAcCcCcCcCcCcAcAcAcAcAcAdBdBdBdBdBdBcAcAcAcAcBcBcB,dAdAdAdAdBdBdBdBdBdBdBdBdB,x,cAcAdBcCcCcCcCcCcBcBcBcAcAcAcA,cAcAcAcAdBdBdBdBdBdBdBdB,cCcCcCcAcAcAcAcAcAcAcAcAcAcCcCcCcCcCcCcCcC
S17,super,F03,famous,A,131,1035,TRUE,s013,cAcAdBcCcCcCcCcCcBcBcBcAcAcAcA,dBdBdBdBdBdBdBdBcCcCcCcCcCcCcCcCcA,bBbBbBeBeBeBdBdBdBdBdBdBdBdB,cAcAcAdBdBdBdBdBdBdBdBdBdB,cCdBcCdBdBdBdBdBdBdBdBdBdB,cAcBcBcBcBcCcCcCcCcCcCcC,cAcAcAcAcCcCcCcCcCcCcCcCcC,dBdBdBdBdBdBdBdBdBdBdBdBdBdBdB,dBdBdBdBdBcCcCcCcCcCcCcCcCcCcCcCcC,cBcBcBcBcCcCcCcCcAcAcAcAcCcCcCcC,dBdBdBcBcBcBcAcAcAcAcCcCcCcCcCcAcAcAcAcAcAdBdBdBdBdBdBcAcAcAcAcBcBcB,dAdAdAdAdBdBdBdBdBdBdBdBdB,dBdBdBdBdBdBdBdBdBdBdBdB,x,cAcAcAcAdBdBdBdBdBdBdBdB,cCcCcCcAcAcAcAcAcAcAcAcAcAcCcCcCcCcCcCcCcC
S90,super,F03,famous,A,10,766,TRUE,s014,cAcAcAcAdBdBdBdBdBdBdBdB,dBdBdBdBdBdBdBdBcCcCcCcCcCcCcCcCcA,bBbBbBeBeBeBdBdBdBdBdBdBdBdB,cAcAcAdBdBdBdBdBdBdBdBdBdB,cCdBcCdBdBdBdBdBdBdBdBdBdB,cAcBcBcBcBcCcCcCcCcCcCcC,cAcAcAcAcCcCcCcCcCcCcCcCcC,dBdBdBdBdBdBdBdBdBdBdBdBdBdBdB,dBdBdBdBdBcCcCcCcCcCcCcCcCcCcCcCcC,cBcBcBcBcCcCcCcCcAcAcAcAcCcCcCcC,dBdBdBcBcBcBcAcAcAcAcCcCcCcCcCcAcAcAcAcAcAdBdBdBdBdBdBcAcAcAcAcBcBcB,dAdAdAdAdBdBdBdBdBdBdBdBdB,dBdBdBdBdBdBdBdBdBdBdBdB,cAcAdBcCcCcCcCcCcBcBcBcAcAcAcA,x,cCcCcCcAcAcAcAcAcAcAcAcAcAcCcCcCcCcCcCcCcC
S91,super,F03,famous,A,129,1076,TRUE,s015,cCcCcCcAcAcAcAcAcAcAcAcAcAcCcCcCcCcCcCcCcC,dBdBdBdBdBdBdBdBcCcCcCcCcCcCcCcCcA,bBbBbBeBeBeBdBdBdBdBdBdBdBdB,cAcAcAdBdBdBdBdBdBdBdBdBdB,cCdBcCdBdBdBdBdBdBdBdBdBdB,cAcBcBcBcBcCcCcCcCcCcCcC,cAcAcAcAcCcCcCcCcCcCcCcCcC,dBdBdBdBdBdBdBdBdBdBdBdBdBdBdB,dBdBdBdBdBcCcCcCcCcCcCcCcCcCcCcCcC,cBcBcBcBcCcCcCcCcAcAcAcAcCcCcCcC,dBdBdBcBcBcBcAcAcAcAcCcCcCcCcCcAcAcAcAcAcAdBdBdBdBdBdBcAcAcAcAcBcBcB,dAdAdAdAdBdBdBdBdBdBdBdBdB,dBdBdBdBdBdBdBdBdBdBdBdB,cAcAdBcCcCcCcCcCcBcBcBcAcAcAcA,cAcAcAcAdBdBdBdBdBdBdBdB,x
S01,super,F03,famous,B,103,1000,TRUE,s001,cBcBcBcBcBdBdBdBdBdBdBdBdBdBdBdBdBdBdBdB,x,dBdBdBdBdBdBdBdBdBcBcBcB,dBdBdBdBdBdBdBdBdBdBdBdBdBdBdBdBdB,eBeBeBeBdBdBdBdBdBcCcCcCcCcCcCcCcC,dAcAcAdAcAdBcCcCcCcCcCcCcCcCcCcC,dBdBdBdBdBdBdBdBdB,cBcBcBdBdBdBdBdBdBdBdBdBdBdB,cBcBcBcBdBdBdBdBdBdBdBdBdBdBdBdBdBdBdBdBdBcCdB,dBdBdBdBcCdCdCdCcCcBcBcBcCcCcCcCcCcBcB,cBcBcBcAcAcAcAcCcCcCcCcCdBdBdBcAcAcAcAcAcAcCcCcCcCcCcCcCeBeBeBeBeBeBcAcAcAcAcAcAcAcAcAcB,dBdBdBdBdBdBdBdBdBdBdBdBcAcAcAcAcAbBbBbBbB,dAdAdBdBdBdBdBdBcCcCcC,eBdAdBdCdCdCdCdCdBcBcBcBcBdCdCdCdCdCdCdC,dAdAeBdBdBdBdBdBdBdBdBdBdBdBeB,cBcBcBcBdBdBdBdBdBdBdBdBdBdBdBdBdBdBdBdBdBdBdB
S02,super,F03,famous,B,30,782,TRUE,s002,dBdBdBdBdBdBdBdBdBcBcBcB,cBcBcBcBcBdBdBdBdBdBdBdBdBdBdBdBdBdBdBdB,x,dBdBdBdBdBdBdBdBdBdBdBdBdBdBdBdBdB,eBeBeBeBdBdBdBdBdBcCcCcCcCcCcCcCcC,dAcAcAdAcAdBcCcCcCcCcCcCcCcCcCcC,dBdBdBdBdBdBdBdBdB,cBcBcBdBdBdBdBdBdBdBdBdBdBdB,cBcBcBcBdBdBdBdBdBdBdBdBdBdBdBdBdBdBdBdBdBcCdB,dBdBdBdBcCdCdCdCcCcBcBcBcCcCcCcCcCcBcB,cBcBcBcAcAcAcAcCcCcCcCcCdBdBdBcAcAcAcAcAcAcCcCcCcCcCcCcCeBeBeBeBeBeBcAcAcAcAcAcAcAcAcAcB,dBdBdBdBdBdBdBdBdBdBdBdBcAcAcAcAcAbBbBbBbB,dAdAdBdBdBdBdBdBcCcCcC,eBdAdBdCdCdCdCdCdBcBcBcBcBdCdCdCdCdCdCdC,dAdAeBdBdBdBdBdBdBdBdBdBdBdBeB,cBcBcBcBdBdBdBdBdBdBdBdBdBdBdBdBdBdBdBdBdBdBdB
S03,super,F03,famous,B,12,1021,TRUE,s003,dBdBdBdBdBdBdBdBdBdBdBdBdBdBdBdBdB,cBcBcBcBcBdBdBdBdBdBdBdBdBdBdBdBdBdBdBdB,dBdBdBdBdBdBdBdBdBcBcBcB,x,eBeBeBeBdBdBdBdBdBcCcCcCcCcCcCcCcC,dAcAcAdAcAdBcCcCcCcCcCcCcCcCcCcC,dBdBdBdBdBdBdBdBdB,cBcBcBdBdBdBdBdBdBdBdBdBdBdB,cBcBcBcBdBdBdBdBdBdBdBdBdBdBdBdBdBdBdBdBdBcCdB,dBdBdBdBcCdCdCdCcCcBcBcBcCcCcCcCcCcBcB,cBcBcBcAcAcAcAcCcCcCcCcCdBdBdBcAcAcAcAcAcAcCcCcCcCcCcCcCeBeBeBeBeBeBcAcAcAcAcAcAcAcAcAcB,dBdBdBdBdBdBdBdBdBdBdBdBcAcAcAcAcAbBbBbBbB,dAdAdBdBdBdBdBdBcCcCcC,eBdAdBdCdCdCdCdCdBcBcBcBcBdCdCdCdCdCdCdC,dAdAeBdBdBdBdBdBdBdBdBdBdBdBeB,cBcBcBcBdBdBdBdBdBdBdBdBdBdBdBdBdBdBdBdBdBdBdB
S04,super,F03,famous,B,71,1016,TRUE,s004,eBeBeBeBdBdBdBdBdBcCcCcCcCcCcCcCcC,cBcBcBcBcBdBdBdBdBdBdBdBdBdBdBdBdBdBdBdB,dBdBdBdBdBdBdBdBdBcBcBcB,dBdBdBdBdBdBdBdBdBdBdBdBdBdBdBdBdB,x,dAcAcAdAcAdBcCcCcCcCcCcCcCcCcCcC,dBdBdBdBdBdBdBdBdB,cBcBcBdBdBdBdBdBdBdBdBdBdBdB,cBcBcBcBdBdBdBdBdBdBdBdBdBdBdBdBdBdBdBdBdBcCdB,dBdBdBdBcCdCdCdCcCcBcBcBcCcCcCcCcCcBcB,cBcBcBcAcAcAcAcCcCcCcCcCdBdBdBcAcAcAcAcAcAcCcCcCcCcCcCcCeBeBeBeBeBeBcAcAcAcAcAcAcAcAcAcB,dBdBdBdBdBdBdBdBdBdBdBdBcAcAcAcAcAbBbBbBbB,dAdAdBdBdBdBdBdBcCcCcC,eBdAdBdCdCdCdCdCdBcBcBcBcBdCdCdCdCdCdCdC,dAdAeBdBdBdBdBdBdBdBdBdBdBdBeB,cBcBcBcBdBdBdBdBdBdBdBdBdBdBdBdBdBdBdBdBdBdBdB
S07,super,F03,famous,B,15,1020,TRUE,s005,dAcAcAdAcAdBcCcCcCcCcCcCcCcCcCcC,cBcBcBcBcBdBdBdBdBdBdBdBdBdBdBdBdBdBdBdB,dBdBdBdBdBdBdBdBdBcBcBcB,dBdBdBdBdBdBdBdBdBdBdBdBdBdBdBdBdB,eBeBeBeBdBdBdBdBdBcCcCcCcCcCcCcCcC,x,dBdBdBdBdBdBdBdBdB,cBcBcBdBdBdBdBdBdBdBdBdBdBdB,cBcBcBcBdBdBdBdBdBdBdBdBdBdBdBdBdBdBdBdBdBcCdB,dBdBdBdBcCdCdCdCcCcBcBcBcCcCcCcCcCcBcB,cBcBcBcAcAcAcAcCcCcCcCcCdBdBdBcAcAcAcAcAcAcCcCcCcCcCcCcCeBeBeBeBeBeBcAcAcAcAcAcAcAcAcAcB,dBdBdBdBdBdBdBdBdBdBdBdBcAcAcAcAcAbBbBbBbB,dAdAdBdBdBdBdBdBcCcCcC,eBdAdBdCdCdCdCdCdBcBcBcBcBdCdCdCdCdCdCdC,dAdAeBdBdBdBdBdBdBdBdBdBdBdBeB,cBcBcBcBdBdBdBdBdBdBdBdBdBdBdBdBdBdBdBdBdBdBdB
S09,super,F03,famous,B,116,687,TRUE,s006,dBdBdBdBdBdBdBdBdB,cBcBcBcBcBdBdBdBdBdBdBdBdBdBdBdBdBdBdBdB,dBdBdBdBdBdBdBdBdBcBcBcB,dBdBdBdBdBdBdBdBdBdBdBdBdBdBdBdBdB,eBeBeBeBdBdBdBdBdBcCcCcCcCcCcCcCcC,dAcAcAdAcAdBcCcCcCcCcCcCcCcCcCcC,x,cBcBcBdBdBdBdBdBdBdBdBdBdBdB,cBcBcBcBdBdBdBdBdBdBdBdBdBdBdBdBdBdBdBdBdBcCdB,dBdBdBdBcCdCdCdCcCcBcBcBcCcCcCcCcCcBcB,cBcBcBcAcAcAcAcCcCcCcCcCdBdBdBcAcAcAcAcAcAcCcCcCcCcCcCcCeBeBeBeBeBeBcAcAcAcAcAcAcAcAcAcB,dBdBdBdBdBdBdBdBdBdBdBdBcAcAcAcAcAbBbBbBbB,dAdAdBdBdBdBdBdBcCcCcC,eBdAdBdCdCdCdCdCdBcBcBcBcBdCdCdCdCdCdCdC,dAdAeBdBdBdBdBdBdBdBdBdBdBdBeB,cBcBcBcBdBdBdBdBdBdBdBdBdBdBdBdBdBdBdBdBdBdBdB
S10,super,F03,famous,B,85,688,TRUE,s007,cBcBcBdBdBdBdBdBdBdBdBdBdBdB,cBcBcBcBcBdBdBdBdBdBdBdBdBdBdBdBdBdBdBdB,dBdBdBdBdBdBdBdBdBcBcBcB,dBdBdBdBdBdBdBdBdBdBdBdBdBdBdBdBdB,eBeBeBeBdBdBdBdBdBcCcCcCcCcCcCcCcC,dAcAcAdAcAdBcCcCcCcCcCcCcCcCcCcC,dBdBdBdBdBdBdBdBdB,x,cBcBcBcBdBdBdBdBdBdBdBdBdBdBdBdBdBdBdBdBdBcCdB,dBdBdBdBcCdCdCdCcCcBcBcBcCcCcCcCcCcBcB,cBcBcBcAcAcAcAcCcCcCcCcCdBdBdBcAcAcAcAcAcAcCcCcCcCcCcCcCeBeBeBeBeBeBcAcAcAcAcAcAcAcAcAcB,dBdBdBdBdBdBdBdBdBdBdBdBcAcAcAcAcAbBbBbBbB,dAdAdBdBdBdBdBdBcCcCcC,eBdAdBdCdCdCdCdCdBcBcBcBcBdCdCdCdCdCdCdC,dAdAeBdBdBdBdBdBdBdBdBdBdBdBeB,cBcBcBcBdBdBdBdBdBdBdBdBdBdBdBdBdBdBdBdBdBdBdB
S11,super,F03,famous,B,3,1145,TRUE,s008,cBcBcBcBdBdBdBdBdBdBdBdBdBdBdBdBdBdBdBdBdBcCdB,cBcBcBcBcBdBdBdBdBdBdBdBdBdBdBdBdBdBdBdB,dBdBdBdBdBdBdBdBdBcBcBcB,dBdBdBdBdBdBdBdBdBdBdBdBdBdBdBdBdB,eBeBeBeBdBdBdBdBdBcCcCcCcCcCcCcCcC,dAcAcAdAcAdBcCcCcCcCcCcCcCcCcCcC,dBdBdBdBdBdBdBdBdB,cBcBcBdBdBdBdBdBdBdBdBdBdBdB,x,dBdBdBdBcCdCdCdCcCcBcBcBcCcCcCcCcCcBcB,cBcBcBcAcAcAcAcCcCcCcCcCdBdBdBcAcAcAcAcAcAcCcCcCcCcCcCcCeBeBeBeBeBeBcAcAcAcAcAcAcAcAcAcB,dBdBdBdBdBdBdBdBdBdBdBdBcAcAcAcAcAbBbBbBbB,dAdAdBdBdBdBdBdBcCcCcC,eBdAdBdCdCdCdCdCdBcBcBcBcBdCdCdCdCdCdCdC,dAdAeBdBdBdBdBdBdBdBdBdBdBdBeB,cBcBcBcBdBdBdBdBdBdBdBdBdBdBdBdBdBdBdBdBdBdBdB
S12,super,F03,famous,B,56,928,TRUE,s009,dBdBdBdBcCdCdCdCcCcBcBcBcCcCcCcCcCcBcB,cBcBcBcBcBdBdBdBdBdBdBdBdBdBdBdBdBdBdBdB,dBdBdBdBdBdBdBdBdBcBcBcB,dBdBdBdBdBdBdBdBdBdBdBdBdBdBdBdBdB,eBeBeBeBdBdBdBdBdBcCcCcCcCcCcCcCcC,dAcAcAdAcAdBcCcCcCcCcCcCcCcCcCcC,dBdBdBdBdBdBdBdBdB,cBcBcBdBdBdBdBdBdBdBdBdBdBdB,cBcBcBcBdBdBdBdBdBdBdBdBdBdBdBdBdBdBdBdBdBcCdB,x,cBcBcBcAcAcAcAcCcCcCcCcCdBdBdBcAcAcAcAcAcAcCcCcCcCcCcCcCeBeBeBeBeBeBcAcAcAcAcAcAcAcAcAcB,dBdBdBdBdBdBdBdBdBdBdBdBcAcAcAcAcAbBbBbBbB,dAdAdBdBdBdBdBdBcCcCcC,eBdAdBdCdCdCdCdCdBcBcBcBcBdCdCdCdCdCdCdC,dAdAeBdBdBdBdBdBdBdBdBdBdBdBeB,cBcBcBcBdBdBdBdBdBdBdBdBdBdBdBdBdBdBdBdBdBdBdB
S13,super,F03,famous,B,57,2154,TRUE,s010,cBcBcBcAcAcAcAcCcCcCcCcCdBdBdBcAcAcAcAcAcAcCcCcCcCcCcCcCeBeBeBeBeBeBcAcAcAcAcAcAcAcAcAcB,cBcBcBcBcBdBdBdBdBdBdBdBdBdBdBdBdBdBdBdB,dBdBdBdBdBdBdBdBdBcBcBcB,dBdBdBdBdBdBdBdBdBdBdBdBdBdBdBdBdB,eBeBeBeBdBdBdBdBdBcCcCcCcCcCcCcCcC,dAcAcAdAcAdBcCcCcCcCcCcCcCcCcCcC,dBdBdBdBdBdBdBdBdB,cBcBcBdBdBdBdBdBdBdBdBdBdBdB,cBcBcBcBdBdBdBdBdBdBdBdBdBdBdBdBdBdBdBdBdBcCdB,dBdBdBdBcCdCdCdCcCcBcBcBcCcCcCcCcCcBcB,x,dBdBdBdBdBdBdBdBdBdBdBdBcAcAcAcAcAbBbBbBbB,dAdAdBdBdBdBdBdBcCcCcC,eBdAdBdCdCdCdCdCdBcBcBcBcBdCdCdCdCdCdCdC,dAdAeBdBdBdBdBdBdBdBdBdBdBdBeB,cBcBcBcBdBdBdBdBdBdBdBdBdBdBdBdBdBdBdBdBdBdBdB
S14,super,F03,famous,B,133,1159,TRUE,s011,dBdBdBdBdBdBdBdBdBdBdBdBcAcAcAcAcAbBbBbBbB,cBcBcBcBcBdBdBdBdBdBdBdBdBdBdBdBdBdBdBdB,dBdBdBdBdBdBdBdBdBcBcBcB,dBdBdBdBdBdBdBdBdBdBdBdBdBdBdBdBdB,eBeBeBeBdBdBdBdBdBcCcCcCcCcCcCcCcC,dAcAcAdAcAdBcCcCcCcCcCcCcCcCcCcC,dBdBdBdBdBdBdBdBdB,cBcBcBdBdBdBdBdBdBdBdBdBdBdB,cBcBcBcBdBdBdBdBdBdBdBdBdBdBdBdBdBdBdBdBdBcCdB,dBdBdBdBcCdCdCdCcCcBcBcBcCcCcCcCcCcBcB,cBcBcBcAcAcAcAcCcCcCcCcCdBdBdBcAcAcAcAcAcAcCcCcCcCcCcCcCeBeBeBeBeBeBcAcAcAcAcAcAcAcAcAcB,x,dAdAdBdBdBdBdBdBcCcCcC,eBdAdBdCdCdCdCdCdBcBcBcBcBdCdCdCdCdCdCdC,dAdAeBdBdBdBdBdBdBdBdBdBdBdBeB,cBcBcBcBdBdBdBdBdBdBdBdBdBdBdBdBdBdBdBdBdBdBdB
S15,super,F03,famous,B,58,687,TRUE,s012,dAdAdBdBdBdBdBdBcCcCcC,cBcBcBcBcBdBdBdBdBdBdBdBdBdBdBdBdBdBdBdB,dBdBdBdBdBdBdBdBdBcBcBcB,dBdBdBdBdBdBdBdBdBdBdBdBdBdBdBdBdB,eBeBeBeBdBdBdBdBdBcCcCcCcCcCcCcCcC,dAcAcAdAcAdBcCcCcCcCcCcCcCcCcCcC,dBdBdBdBdBdBdBdBdB,cBcBcBdBdBdBdBdBdBdBdBdBdBdB,cBcBcBcBdBdBdBdBdBdBdBdBdBdBdBdBdBdBdBdBdBcCdB,dBdBdBdBcCdCdCdCcCcBcBcBcCcCcCcCcCcBcB,cBcBcBcAcAcAcAcCcCcCcCcCdBdBdBcAcAcAcAcAcAcCcCcCcCcCcCcCeBeBeBeBeBeBcAcAcAcAcAcAcAcAcAcB,dBdBdBdBdBdBdBdBdBdBdBdBcAcAcAcAcAbBbBbBbB,x,eBdAdBdCdCdCdCdCdBcBcBcBcBdCdCdCdCdCdCdC,dAdAeBdBdBdBdBdBdBdBdBdBdBdBeB,cBcBcBcBdBdBdBdBdBdBdBdBdBdBdBdBdBdBdBdBdBdBdB
S17,super,F03,famous,B,75,1256,TRUE,s013,eBdAdBdCdCdCdCdCdBcBcBcBcBdCdCdCdCdCdCdC,cBcBcBcBcBdBdBdBdBdBdBdBdBdBdBdBdBdBdBdB,dBdBdBdBdBdBdBdBdBcBcBcB,dBdBdBdBdBdBdBdBdBdBdBdBdBdBdBdBdB,eBeBeBeBdBdBdBdBdBcCcCcCcCcCcCcCcC,dAcAcAdAcAdBcCcCcCcCcCcCcCcCcCcC,dBdBdBdBdBdBdBdBdB,cBcBcBdBdBdBdBdBdBdBdBdBdBdB,cBcBcBcBdBdBdBdBdBdBdBdBdBdBdBdBdBdBdBdBdBcCdB,dBdBdBdBcCdCdCdCcCcBcBcBcCcCcCcCcCcBcB,cBcBcBcAcAcAcAcCcCcCcCcCdBdBdBcAcAcAcAcAcAcCcCcCcCcCcCcCeBeBeBeBeBeBcAcAcAcAcAcAcAcAcAcB,dBdBdBdBdBdBdBdBdBdBdBdBcAcAcAcAcAbBbBbBbB,dAdAdBdBdBdBdBdBcCcCcC,x,dAdAeBdBdBdBdBdBdBdBdBdBdBdBeB,cBcBcBcBdBdBdBdBdBdBdBdBdBdBdBdBdBdBdBdBdBdBdB
S90,super,F03,famous,B,29,861,TRUE,s014,dAdAeBdBdBdBdBdBdBdBdBdBdBdBeB,cBcBcBcBcBdBdBdBdBdBdBdBdBdBdBdBdBdBdBdB,dBdBdBdBdBdBdBdBdBcBcBcB,dBdBdBdBdBdBdBdBdBdBdBdBdBdBdBdBdB,eBeBeBeBdBdBdBdBdBcCcCcCcCcCcCcCcC,dAcAcAdAcAdBcCcCcCcCcCcCcCcCcCcC,dBdBdBdBdBdBdBdBdB,cBcBcBdBdBdBdBdBdBdBdBdBdBdB,cBcBcBcBdBdBdBdBdBdBdBdBdBdBdBdBdBdBdBdBdBcCdB,dBdBdBdBcCdCdCdCcCcBcBcBcCcCcCcCcCcBcB,cBcBcBcAcAcAcAcCcCcCcCcCdBdBdBcAcAcAcAcAcAcCcCcCcCcCcCcCeBeBeBeBeBeBcAcAcAcAcAcAcAcAcAcB,dBdBdBdBdBdBdBdBdBdBdBdBcAcAcAcAcAbBbBbBbB,dAdAdBdBdBdBdBdBcCcCcC,eBdAdBdCdCdCdCdCdBcBcBcBcBdCdCdCdCdCdCdC,x,cBcBcBcBdBdBdBdBdBdBdBdBdBdBdBdBdBdBdBdBdBdBdB
S91,super,F03,famous,B,63,1129,TRUE,s015,cBcBcBcBdBdBdBdBdBdBdBdBdBdBdBdBdBdBdBdBdBdBdB,cBcBcBcBcBdBdBdBdBdBdBdBdBdBdBdBdBdBdBdB,dBdBdBdBdBdBdBdBdBcBcBcB,dBdBdBdBdBdBdBdBdBdBdBdBdBdBdBdBdB,eBeBeBeBdBdBdBdBdBcCcCcCcCcCcCcCcC,dAcAcAdAcAdBcCcCcCcCcCcCcCcCcCcC,dBdBdBdBdBdBdBdBdB,cBcBcBdBdBdBdBdBdBdBdBdBdBdB,cBcBcBcBdBdBdBdBdBdBdBdBdBdBdBdBdBdBdBdBdBcCdB,dBdBdBdBcCdCdCdCcCcBcBcBcCcCcCcCcCcBcB,cBcBcBcAcAcAcAcCcCcCcCcCdBdBdBcAcAcAcAcAcAcCcCcCcCcCcCcCeBeBeBeBeBeBcAcAcAcAcAcAcAcAcAcB,dBdBdBdBdBdBdBdBdBdBdBdBcAcAcAcAcAbBbBbBbB,dAdAdBdBdBdBdBdBcCcCcC,eBdAdBdCdCdCdCdCdBcBcBcBcBdCdCdCdCdCdCdC,dAdAeBdBdBdBdBdBdBdBdBdBdBdBeB,x
S01,super,F03,famous,C,77,1061,TRUE,s001,dCdCdCdCdBdBdBdBdBdBdBdBdBdBdBdBdBdBdBdBdB,x,dBdBdBdBdBdBdBdBcB,cAcAcAdBdBdBdBdBdBdBdBdBdB,eBeBeBeBeBdBdBdBdBdBdBdBdBdBdBdBdBdBeBeBeBeBeBeB,dBdBdBdBdCdCdCdCcCcCcCcCcCcC,dBdBdBcBcBcBcBcBcBdBdBdB,dBdBdBdBdBdBdBdBdBdBdBdB,dBdBdBdBdBdBdBdBdBdBdBdBdBdBdBdBdBdBdBdB,cCcCcCcCcCcCcAcAcAcA,dBdBdBdBcBcBcAcAcAcAcAcAcCcCcCcCcCcCeBeBeBeBcAcAcAcAcAcAcAcA,dBdBdBdBdBdBdBdBdBdBdBcAcAcAcA,cAcAcAdBdBdBdBdBdBdBdBdB,cBcCcCcCcCcBcBcBdCdCdCcCdCcCcCcCcAdBdBcAdBdB,cAcAdBdBdBdBdBdBdBdBdBdBdB,cAcAcAcAcAcAcAcAcCcCcCcCdBeBeBeBdBcBcBcBcBcBcBcB
S02,super,F03,famous,C,75,594,TRUE,s002,dBdBdBdBdBdBdBdBcB,dCdCdCdCdBdBdBdBdBdBdBdBdBdBdBdBdBdBdBdBdB,x,cAcAcAdBdBdBdBdBdBdBdBdBdB,eBeBeBeBeBdBdBdBdBdBdBdBdBdBdBdBdBdBeBeBeBeBeBeB,dBdBdBdBdCdCdCdCcCcCcCcCcCcC,dBdBdBcBcBcBcBcBcBdBdBdB,dBdBdBdBdBdBdBdBdBdBdBdB,dBdBdBdBdBdBdBdBdBdBdBdBdBdBdBdBdBdBdBdB,cCcCcCcCcCcCcAcAcAcA,dBdBdBdBcBcBcAcAcAcAcAcAcCcCcCcCcCcCeBeBeBeBcAcAcAcAcAcAcAcA,dBdBdBdBdBdBdBdBdBdBdBcAcAcAcA,cAcAcAdBdBdBdBdBdBdBdBdB,cBcCcCcCcCcBcBcBdCdCdCcCdCcCcCcCcAdBdBcAdBdB,cAcAdBdBdBdBdBdBdBdBdBdBdB,cAcAcAcAcAcAcAcAcCcCcCcCdBeBeBeBdBcBcBcBcBcBcBcB
S03,super,F03,famous,C,84,837,TRUE,s003,cAcAcAdBdBdBdBdBdBdBdBdBdB,dCdCdCdCdBdBdBdBdBdBdBdBdBdBdBdBdBdBdBdBdB,dBdBdBdBdBdBdBdBcB,x,eBeBeBeBeBdBdBdBdBdBdBdBdBdBdBdBdBdBeBeBeBeBeBeB,dBdBdBdBdCdCdCdCcCcCcCcCcCcC,dBdBdBcBcBcBcBcBcBdBdBdB,dBdBdBdBdBdBdBdBdBdBdBdB,dBdBdBdBdBdBdBdBdBdBdBdBdBdBdBdBdBdBdBdB,cCcCcCcCcCcCcAcAcAcA,dBdBdBdBcBcBcAcAcAcAcAcAcCcCcCcCcCcCeBeBeBeBcAcAcAcAcAcAcAcA,dBdBdBdBdBdBdBdBdBdBdBcAcAcAcA,cAcAcAdBdBdBdBdBdBdBdBdB,cBcCcCcCcCcBcBcBdCdCdCcCdCcCcCcCcAdBdBcAdBdB,cAcAdBdBdBdBdBdBdBdBdBdBdB,cAcAcAcAcAcAcAcAcCcCcCcCdBeBeBeBdBcBcBcBcBcBcBcB
S04,super,F03,famous,C,41,1543,TRUE,s004,eBeBeBeBeBdBdBdBdBdBdBdBdBdBdBdBdBdBeBeBeBeBeBeB,dCdCdCdCdBdBdBdBdBdBdBdBdBdBdBdBdBdBdBdBdB,dBdBdBdBdBdBdBdBcB,cAcAcAdBdBdBdBdBdBdBdBdBdB,x,dBdBdBdBdCdCdCdCcCcCcCcCcCcC,dBdBdBcBcBcBcBcBcBdBdBdB,dBdBdBdBdBdBdBdBdBdBdBdB,dBdBdBdBdBdBdBdBdBdBdBdBdBdBdBdBdBdBdBdB,cCcCcCcCcCcCcAcAcAcA,dBdBdBdBcBcBcAcAcAcAcAcAcCcCcCcCcCcCeBeBeBeBcAcAcAcAcAcAcAcA,dBdBdBdBdBdBdBdBdBdBdBcAcAcAcA,cAcAcAdBdBdBdBdBdBdBdBdB,cBcCcCcCcCcBcBcBdCdCdCcCdCcCcCcCcAdBdBcAdBdB,cAcAdBdBdBdBdBdBdBdBdBdBdB,cAcAcAcAcAcAcAcAcCcCcCcCdBeBeBeBdBcBcBcBcBcBcBcB
S07,super,F03,famous,C,106,928,TRUE,s005,dBdBdBdBdCdCdCdCcCcCcCcCcCcC,dCdCdCdCdBdBdBdBdBdBdBdBdBdBdBdBdBdBdBdBdB,dBdBdBdBdBdBdBdBcB,cAcAcAdBdBdBdBdBdBdBdBdBdB,eBeBeBeBeBdBdBdBdBdBdBdBdBdBdBdBdBdBeBeBeBeBeBeB,x,dBdBdBcBcBcBcBcBcBdBdBdB,dBdBdBdBdBdBdBdBdBdBdBdB,dBdBdBdBdBdBdBdBdBdBdBdBdBdBdBdBdBdBdBdB,cCcCcCcCcCcCcAcAcAcA,dBdBdBdBcBcBcAcAcAcAcAcAcCcCcCcCcCcCeBeBeBeBcAcAcAcAcAcAcAcA,dBdBdBdBdBdBdBdBdBdBdBcAcAcAcA,cAcAcAdBdBdBdBdBdBdBdBdB,cBcCcCcCcCcBcBcBdCdCdCcCdCcCcCcCcAdBdBcAdBdB,cAcAdBdBdBdBdBdBdBdBdBdBdB,cAcAcAcAcAcAcAcAcCcCcCcCdBeBeBeBdBcBcBcBcBcBcBcB
S09,super,F03,famous,C,23,758,TRUE,s006,dBdBdBcBcBcBcBcBcBdBdBdB,dCdCdCdCdBdBdBdBdBdBdBdBdBdBdBdBdBdBdBdBdB,dBdBdBdBdBdBdBdBcB,cAcAcAdBdBdBdBdBdBdBdBdBdB,eBeBeBeBeBdBdBdBdBdBdBdBdBdBdBdBdBdBeBeBeBeBeBeB,dBdBdBdBdCdCdCdCcCcCcCcCcCcC,x,dBdBdBdBdBdBdBdBdBdBdBdB,dBdBdBdBdBdBdBdBdBdBdBdBdBdBdBdBdBdBdBdB,cCcCcCcCcCcCcAcAcAcA,dBdBdBdBcBcBcAcAcAcAcAcAcCcCcCcCcCcCeBeBeBeBcAcAcAcAcAcAcAcA,dBdBdBdBdBdBdBdBdBdBdBcAcAcAcA,cAcAcAdBdBdBdBdBdBdBdBdB,cBcCcCcCcCcBcBcBdCdCdCcCdCcCcCcCcAdBdBcAdBdB,cAcAdBdBdBdBdBdBdBdBdBdBdB,cAcAcAcAcAcAcAcAcCcCcCcCdBeBeBeBdBcBcBcBcBcBcBcB
S10,super,F03,famous,C,148,589,TRUE,s007,dBdBdBdBdBdBdBdBdBdBdBdB,dCdCdCdCdBdBdBdBdBdBdBdBdBdBdBdBdBdBdBdBdB,dBdBdBdBdBdBdBdBcB,cAcAcAdBdBdBdBdBdBdBdBdBdB,eBeBeBeBeBdBdBdBdBdBdBdBdBdBdBdBdBdBeBeBeBeBeBeB,dBdBdBdBdCdCdCdCcCcCcCcCcCcC,dBdBdBcBcBcBcBcBcBdBdBdB,x,dBdBdBdBdBdBdBdBdBdBdBdBdBdBdBdBdBdBdBdB,cCcCcCcCcCcCcAcAcAcA,dBdBdBdBcBcBcAcAcAcAcAcAcCcCcCcCcCcCeBeBeBeBcAcAcAcAcAcAcAcA,dBdBdBdBdBdBdBdBdBdBdBcAcAcAcA,cAcAcAdBdBdBdBdBdBdBdBdB,cBcCcCcCcCcBcBcBdCdCdCcCdCcCcCcCcAdBdBcAdBdB,cAcAdBdBdBdBdBdBdBdBdBdBdB,cAcAcAcAcAcAcAcAcCcCcCcCdBeBeBeBdBcBcBcBcBcBcBcB
S11,super,F03,famous,C,157,985,TRUE,s008,dBdBdBdBdBdBdBdBdBdBdBdBdBdBdBdBdBdBdBdB,dCdCdCdCdBdBdBdBdBdBdBdBdBdBdBdBdBdBdBdBdB,dBdBdBdBdBdBdBdBcB,cAcAcAdBdBdBdBdBdBdBdBdBdB,eBeBeBeBeBdBdBdBdBdBdBdBdBdBdBdBdBdBeBeBeBeBeBeB,dBdBdBdBdCdCdCdCcCcCcCcCcCcC,dBdBdBcBcBcBcBcBcBdBdBdB,dBdBdBdBdBdBdBdBdBdBdBdB,x,cCcCcCcCcCcCcAcAcAcA,dBdBdBdBcBcBcAcAcAcAcAcAcCcCcCcCcCcCeBeBeBeBcAcAcAcAcAcAcAcA,dBdBdBdBdBdBdBdBdBdBdBcAcAcAcA,cAcAcAdBdBdBdBdBdBdBdBdB,cBcCcCcCcCcBcBcBdCdCdCcCdCcCcCcCcAdBdBcAdBdB,cAcAdBdBdBdBdBdBdBdBdBdBdB,cAcAcAcAcAcAcAcAcCcCcCcCdBeBeBeBdBcBcBcBcBcBcBcB
S12,super,F03,famous,C,151,679,TRUE,s009,cCcCcCcCcCcCcAcAcAcA,dCdCdCdCdBdBdBdBdBdBdBdBdBdBdBdBdBdBdBdBdB,dBdBdBdBdBdBdBdBcB,cAcAcAdBdBdBdBdBdBdBdBdBdB,eBeBeBeBeBdBdBdBdBdBdBdBdBdBdBdBdBdBeBeBeBeBeBeB,dBdBdBdBdCdCdCdCcCcCcCcCcCcC,dBdBdBcBcBcBcBcBcBdBdBdB,dBdBdBdBdBdBdBdBdBdBdBdB,dBdBdBdBdBdBdBdBdBdBdBdBdBdBdBdBdBdBdBdB,x,dBdBdBdBcBcBcAcAcAcAcAcAcCcCcCcCcCcCeBeBeBeBcAcAcAcAcAcAcAcA,dBdBdBdBdBdBdBdBdBdBdBcAcAcAcA,cAcAcAdBdBdBdBdBdBdBdBdB,cBcCcCcCcCcBcBcBdCdCdCcCdCcCcCcCcAdBdBcAdBdB,cAcAdBdBdBdBdBdBdBdBdBdBdB,cAcAcAcAcAcAcAcAcCcCcCcCdBeBeBeBdBcBcBcBcBcBcBcB
S13,super,F03,famous,C,80,1537,TRUE,s010,dBdBdBdBcBcBcAcAcAcAcAcAcCcCcCcCcCcCeBeBeBeBcAcAcAcAcAcAcAcA,dCdCdCdCdBdBdBdBdBdBdBdBdBdBdBdBdBdBdBdBdB,dBdBdBdBdBdBdBdBcB,cAcAcAdBdBdBdBdBdBdBdBdBdB,eBeBeBeBeBdBdBdBdBdBdBdBdBdBdBdBdBdBeBeBeBeBeBeB,dBdBdBdBdCdCdCdCcCcCcCcCcCcC,dBdBdBcBcBcBcBcBcBdBdBdB,dBdBdBdBdBdBdBdBdBdBdBdB,dBdBdBdBdBdBdBdBdBdBdBdBdBdBdBdBdBdBdBdB,cCcCcCcCcCcCcAcAcAcA,x,dBdBdBdBdBdBdBdBdBdBdBcAcAcAcA,cAcAcAdBdBdBdBdBdBdBdBdB,cBcCcCcCcCcBcBcBdCdCdCcCdCcCcCcCcAdBdBcAdBdB,cAcAdBdBdBdBdBdBdBdBdBdBdB,cAcAcAcAcAcAcAcAcCcCcCcCdBeBeBeBdBcBcBcBcBcBcBcB
S14,super,F03,famous,C,58,717,TRUE,s011,dBdBdBdBdBdBdBdBdBdBdBcAcAcAcA,dCdCdCdCdBdBdBdBdBdBdBdBdBdBdBdBdBdBdBdBdB,dBdBdBdBdBdBdBdBcB,cAcAcAdBdBdBdBdBdBdBdBdBdB,eBeBeBeBeBdBdBdBdBdBdBdBdBdBdBdBdBdBeBeBeBeBeBeB,dBdBdBdBdCdCdCdCcCcCcCcCcCcC,dBdBdBcBcBcBcBcBcBdBdBdB,dBdBdBdBdBdBdBdBdBdBdBdB,dBdBdBdBdBdBdBdBdBdBdBdBdBdBdBdBdBdBdBdB,cCcCcCcCcCcCcAcAcAcA,dBdBdBdBcBcBcAcAcAcAcAcAcCcCcCcCcCcCeBeBeBeBcAcAcAcAcAcAcAcA,x,cAcAcAdBdBdBdBdBdBdBdBdB,cBcCcCcCcCcBcBcBdCdCdCcCdCcCcCcCcAdBdBcAdBdB,cAcAdBdBdBdBdBdBdBdBdBdBdB,cAcAcAcAcAcAcAcAcCcCcCcCdBeBeBeBdBcBcBcBcBcBcBcB
S15,super,F03,famous,C,17,963,TRUE,s012,cAcAcAdBdBdBdBdBdBdBdBdB,dCdCdCdCdBdBdBdBdBdBdBdBdBdBdBdBdBdBdBdBdB,dBdBdBdBdBdBdBdBcB,cAcAcAdBdBdBdBdBdBdBdBdBdB,eBeBeBeBeBdBdBdBdBdBdBdBdBdBdBdBdBdBeBeBeBeBeBeB,dBdBdBdBdCdCdCdCcCcCcCcCcCcC,dBdBdBcBcBcBcBcBcBdBdBdB,dBdBdBdBdBdBdBdBdBdBdBdB,dBdBdBdBdBdBdBdBdBdBdBdBdBdBdBdBdBdBdBdB,cCcCcCcCcCcCcAcAcAcA,dBdBdBdBcBcBcAcAcAcAcAcAcCcCcCcCcCcCeBeBeBeBcAcAcAcAcAcAcAcA,dBdBdBdBdBdBdBdBdBdBdBcAcAcAcA,x,cBcCcCcCcCcBcBcBdCdCdCcCdCcCcCcCcAdBdBcAdBdB,cAcAdBdBdBdBdBdBdBdBdBdBdB,cAcAcAcAcAcAcAcAcCcCcCcCdBeBeBeBdBcBcBcBcBcBcBcB
S17,super,F03,famous,C,90,1153,TRUE,s013,cBcCcCcCcCcBcBcBdCdCdCcCdCcCcCcCcAdBdBcAdBdB,dCdCdCdCdBdBdBdBdBdBdBdBdBdBdBdBdBdBdBdBdB,dBdBdBdBdBdBdBdBcB,cAcAcAdBdBdBdBdBdBdBdBdBdB,eBeBeBeBeBdBdBdBdBdBdBdBdBdBdBdBdBdBeBeBeBeBeBeB,dBdBdBdBdCdCdCdCcCcCcCcCcCcC,dBdBdBcBcBcBcBcBcBdBdBdB,dBdBdBdBdBdBdBdBdBdBdBdB,dBdBdBdBdBdBdBdBdBdBdBdBdBdBdBdBdBdBdBdB,cCcCcCcCcCcCcAcAcAcA,dBdBdBdBcBcBcAcAcAcAcAcAcCcCcCcCcCcCeBeBeBeBcAcAcAcAcAcAcAcA,dBdBdBdBdBdBdBdBdBdBdBcAcAcAcA,cAcAcAdBdBdBdBdBdBdBdBdB,x,cAcAdBdBdBdBdBdBdBdBdBdBdB,cAcAcAcAcAcAcAcAcCcCcCcCdBeBeBeBdBcBcBcBcBcBcBcB
S90,super,F03,famous,C,101,900,TRUE,s014,cAcAdBdBdBdBdBdBdBdBdBdBdB,dCdCdCdCdBdBdBdBdBdBdBdBdBdBdBdBdBdBdBdBdB,dBdBdBdBdBdBdBdBcB,cAcAcAdBdBdBdBdBdBdBdBdBdB,eBeBeBeBeBdBdBdBdBdBdBdBdBdBdBdBdBdBeBeBeBeBeBeB,dBdBdBdBdCdCdCdCcCcCcCcCcCcC,dBdBdBcBcBcBcBcBcBdBdBdB,dBdBdBdBdBdBdBdBdBdBdBdB,dBdBdBdBdBdBdBdBdBdBdBdBdBdBdBdBdBdBdBdB,cCcCcCcCcCcCcAcAcAcA,dBdBdBdBcBcBcAcAcAcAcAcAcCcCcCcCcCcCeBeBeBeBcAcAcAcAcAcAcAcA,dBdBdBdBdBdBdBdBdBdBdBcAcAcAcA,cAcAcAdBdBdBdBdBdBdBdBdB,cBcCcCcCcCcBcBcBdCdCdCcCdCcCcCcCcAdBdBcAdBdB,x,cAcAcAcAcAcAcAcAcCcCcCcCdBeBeBeBdBcBcBcBcBcBcBcB
S91,super,F03,famous,C,160,1344,TRUE,s015,cAcAcAcAcAcAcAcAcCcCcCcCdBeBeBeBdBcBcBcBcBcBcBcB,dCdCdCdCdBdBdBdBdBdBdBdBdBdBdBdBdBdBdBdBdB,dBdBdBdBdBdBdBdBcB,cAcAcAdBdBdBdBdBdBdBdBdBdB,eBeBeBeBeBdBdBdBdBdBdBdBdBdBdBdBdBdBeBeBeBeBeBeB,dBdBdBdBdCdCdCdCcCcCcCcCcCcC,dBdBdBcBcBcBcBcBcBdBdBdB,dBdBdBdBdBdBdBdBdBdBdBdB,dBdBdBdBdBdBdBdBdBdBdBdBdBdBdBdBdBdBdBdB,cCcCcCcCcCcCcAcAcAcA,dBdBdBdBcBcBcAcAcAcAcAcAcCcCcCcCcCcCeBeBeBeBcAcAcAcAcAcAcAcA,dBdBdBdBdBdBdBdBdBdBdBcAcAcAcA,cAcAcAdBdBdBdBdBdBdBdBdB,cBcCcCcCcCcBcBcBdCdCdCcCdCcCcCcCcAdBdBcAdBdB,cAcAdBdBdBdBdBdBdBdBdBdBdB,x
S01,super,F03,famous,D,42,1926,TRUE,s001,dBcBcBcBdBdBdBdBdBdBdBdBdBdBdBdBdBdBdBdBdBdBdBdBdBdBdBdBdBdBdB,x,dBdBdBdBdBdBdBdBcCcCcCcCcC,eBeBeBeBdBdBdBdBdBdBdBdBdBdB,eBeBeBdBdBdBdBdBcCcCcCcCcCcCcCcC,dBdBdBdBdBdBdCcCcCcCcCcCcCcCcAcAcAcAeBeBeBeBeBeB,dAdAdBdBdBdBdBcBcBcBcBcBdBdBdBdBdB,cCcCcCdBdBdBdBdBdBdBdBdBdBdBdBdBdBdB,dBdBdBdBdBdBdBdBdBdBdBdBdBdBdBdBdBcCcCdBdBdBeBeBeBeBeBeBeBeBeBeB,dBdBdBdBcCcCcCcCcBcBcBcBcB,dBdBdBcAcAcAcAcCcCcCcCcAcAcAcAcAcAcCcCcCcCdBdBdBdBdBdBcAcAcAcAcAcAcAcCcCcCcCcCcCcCcCcCdBdBdBdBdBdBdBdBdBdBcAcAcAcAcAcAcAcCcCcCcCcCbBbB,dBdBdBdBdBdBdBdBdBdBcCcCcCcCcCcCdBdBdBdBdBdBdBdBeBeBeB,dAdBdBcCcCcCdBdBdBdBdBdBdBdB,eBeBeBdBdBdBdCdCdCdCdBdBdBdBdBdBdCdCdCdCdC,dBdBdBdBdBdBdBdBdBdBdBdBdBeBeB,dBdBdBdBdBdBdBcCcCcCcCcCcCcAcAcAcAcAcAcAcAcAcCcCcCcC
S02,super,F03,famous,D,51,781,TRUE,s002,dBdBdBdBdBdBdBdBcCcCcCcCcC,dBcBcBcBdBdBdBdBdBdBdBdBdBdBdBdBdBdBdBdBdBdBdBdBdBdBdBdBdBdBdB,x,eBeBeBeBdBdBdBdBdBdBdBdBdBdB,eBeBeBdBdBdBdBdBcCcCcCcCcCcCcCcC,dBdBdBdBdBdBdCcCcCcCcCcCcCcCcAcAcAcAeBeBeBeBeBeB,dAdAdBdBdBdBdBcBcBcBcBcBdBdBdBdBdB,cCcCcCdBdBdBdBdBdBdBdBdBdBdBdBdBdBdB,dBdBdBdBdBdBdBdBdBdBdBdBdBdBdBdBdBcCcCdBdBdBeBeBeBeBeBeBeBeBeBeB,dBdBdBdBcCcCcCcCcBcBcBcBcB,dBdBdBcAcAcAcAcCcCcCcCcAcAcAcAcAcAcCcCcCcCdBdBdBdBdBdBcAcAcAcAcAcAcAcCcCcCcCcCcCcCcCcCdBdBdBdBdBdBdBdBdBdBcAcAcAcAcAcAcAcCcCcCcCcCbBbB,dBdBdBdBdBdBdBdBdBdBcCcCcCcCcCcCdBdBdBdBdBdBdBdBeBeBeB,dAdBdBcCcCcCdBdBdBdBdBdBdBdB,eBeBeBdBdBdBdCdCdCdCdBdBdBdBdBdBdCdCdCdCdC,dBdBdBdBdBdBdBdBdBdBdBdBdBeBeB,dBdBdBdBdBdBdBcCcCcCcCcCcCcAcAcAcAcAcAcAcAcAcCcCcCcC
S03,super,F03,famous,D,140,839,TRUE,s003,eBeBeBeBdBdBdBdBdBdBdBdBdBdB,dBcBcBcBdBdBdBdBdBdBdBdBdBdBdBdBdBdBdBdBdBdBdBdBdBdBdBdBdBdBdB,dBdBdBdBdBdBdBdBcCcCcCcCcC,x,eBeBeBdBdBdBdBdBcCcCcCcCcCcCcCcC,dBdBdBdBdBdBdCcCcCcCcCcCcCcCcAcAcAcAeBeBeBeBeBeB,dAdAdBdBdBdBdBcBcBcBcBcBdBdBdBdBdB,cCcCcCdBdBdBdBdBdBdBdBdBdBdBdBdBdBdB,dBdBdBdBdBdBdBdBdBdBdBdBdBdBdBdBdBcCcCdBdBdBeBeBeBeBeBeBeBeBeBeB,dBdBdBdBcCcCcCcCcBcBcBcBcB,dBdBdBcAcAcAcAcCcCcCcCcAcAcAcAcAcAcCcCcCcCdBdBdBdBdBdBcAcAcAcAcAcAcAcCcCcCcCcCcCcCcCcCdBdBdBdBdBdBdBdBdBdBcAcAcAcAcAcAcAcCcCcCcCcCbBbB,dBdBdBdBdBdBdBdBdBdBcCcCcCcCcCcCdBdBdBdBdBdBdBdBeBeBeB,dAdBdBcCcCcCdBdBdBdBdBdBdBdB,eBeBeBdBdBdBdCdCdCdCdBdBdBdBdBdBdCdCdCdCdC,dBdBdBdBdBdBdBdBdBdBdBdBdBeBeB,dBdBdBdBdBdBdBcCcCcCcCcCcCcAcAcAcAcAcAcAcAcAcCcCcCcC
S04,super,F03,famous,D,99,983,TRUE,s004,eBeBeBdBdBdBdBdBcCcCcCcCcCcCcCcC,dBcBcBcBdBdBdBdBdBdBdBdBdBdBdBdBdBdBdBdBdBdBdBdBdBdBdBdBdBdBdB,dBdBdBdBdBdBdBdBcCcCcCcCcC,eBeBeBeBdBdBdBdBdBdBdBdBdBdB,x,dBdBdBdBdBdBdCcCcCcCcCcCcCcCcAcAcAcAeBeBeBeBeBeB,dAdAdBdBdBdBdBcBcBcBcBcBdBdBdBdBdB,cCcCcCdBdBdBdBdBdBdBdBdBdBdBdBdBdBdB,dBdBdBdBdBdBdBdBdBdBdBdBdBdBdBdBdBcCcCdBdBdBeBeBeBeBeBeBeBeBeBeB,dBdBdBdBcCcCcCcCcBcBcBcBcB,dBdBdBcAcAcAcAcCcCcCcCcAcAcAcAcAcAcCcCcCcCdBdBdBdBdBdBcAcAcAcAcAcAcAcCcCcCcCcCcCcCcCcCdBdBdBdBdBdBdBdBdBdBcAcAcAcAcAcAcAcCcCcCcCcCbBbB,dBdBdBdBdBdBdBdBdBdBcCcCcCcCcCcCdBdBdBdBdBdBdBdBeBeBeB,dAdBdBcCcCcCdBdBdBdBdBdBdBdB,eBeBeBdBdBdBdCdCdCdCdBdBdBdBdBdBdCdCdCdCdC,dBdBdBdBdBdBdBdBdBdBdBdBdBeBeB,dBdBdBdBdBdBdBcCcCcCcCcCcCcAcAcAcAcAcAcAcAcAcCcCcCcC
S07,super,F03,famous,D,60,1435,TRUE,s005,dBdBdBdBdBdBdCcCcCcCcCcCcCcCcAcAcAcAeBeBeBeBeBeB,dBcBcBcBdBdBdBdBdBdBdBdBdBdBdBdBdBdBdBdBdBdBdBdBdBdBdBdBdBdBdB,dBdBdBdBdBdBdBdBcCcCcCcCcC,eBeBeBeBdBdBdBdBdBdBdBdBdBdB,eBeBeBdBdBdBdBdBcCcCcCcCcCcCcCcC,x,dAdAdBdBdBdBdBcBcBcBcBcBdBdBdBdBdB,cCcCcCdBdBdBdBdBdBdBdBdBdBdBdBdBdBdB,dBdBdBdBdBdBdBdBdBdBdBdBdBdBdBdBdBcCcCdBdBdBeBeBeBeBeBeBeBeBeBeB,dBdBdBdBcCcCcCcCcBcBcBcBcB,dBdBdBcAcAcAcAcCcCcCcCcAcAcAcAcAcAcCcCcCcCdBdBdBdBdBdBcAcAcAcAcAcAcAcCcCcCcCcCcCcCcCcCdBdBdBdBdBdBdBdBdBdBcAcAcAcAcAcAcAcCcCcCcCcCbBbB,dBdBdBdBdBdBdBdBdBdBcCcCcCcCcCcCdBdBdBdBdBdBdBdBeBeBeB,dAdBdBcCcCcCdBdBdBdBdBdBdBdB,eBeBeBdBdBdBdCdCdCdCdBdBdBdBdBdBdCdCdCdCdC,dBdBdBdBdBdBdBdBdBdBdBdBdBeBeB,dBdBdBdBdBdBdBcCcCcCcCcCcCcAcAcAcAcAcAcAcAcAcCcCcCcC
S09,super,F03,famous,D,108,1000,TRUE,s006,dAdAdBdBdBdBdBcBcBcBcBcBdBdBdBdBdB,dBcBcBcBdBdBdBdBdBdBdBdBdBdBdBdBdBdBdBdBdBdBdBdBdBdBdBdBdBdBdB,dBdBdBdBdBdBdBdBcCcCcCcCcC,eBeBeBeBdBdBdBdBdBdBdBdBdBdB,eBeBeBdBdBdBdBdBcCcCcCcCcCcCcCcC,dBdBdBdBdBdBdCcCcCcCcCcCcCcCcAcAcAcAeBeBeBeBeBeB,x,cCcCcCdBdBdBdBdBdBdBdBdBdBdBdBdBdBdB,dBdBdBdBdBdBdBdBdBdBdBdBdBdBdBdBdBcCcCdBdBdBeBeBeBeBeBeBeBeBeBeB,dBdBdBdBcCcCcCcCcBcBcBcBcB,dBdBdBcAcAcAcAcCcCcCcCcAcAcAcAcAcAcCcCcCcCdBdBdBdBdBdBcAcAcAcAcAcAcAcCcCcCcCcCcCcCcCcCdBdBdBdBdBdBdBdBdBdBcAcAcAcAcAcAcAcCcCcCcCcCbBbB,dBdBdBdBdBdBdBdBdBdBcCcCcCcCcCcCdBdBdBdBdBdBdBdBeBeBeB,dAdBdBcCcCcCdBdBdBdBdBdBdBdB,eBeBeBdBdBdBdCdCdCdCdBdBdBdBdBdBdCdCdCdCdC,dBdBdBdBdBdBdBdBdBdBdBdBdBeBeB,dBdBdBdBdBdBdBcCcCcCcCcCcCcAcAcAcAcAcAcAcAcAcCcCcCcC
S10,super,F03,famous,D,39,868,TRUE,s007,cCcCcCdBdBdBdBdBdBdBdBdBdBdBdBdBdBdB,dBcBcBcBdBdBdBdBdBdBdBdBdBdBdBdBdBdBdBdBdBdBdBdBdBdBdBdBdBdBdB,dBdBdBdBdBdBdBdBcCcCcCcCcC,eBeBeBeBdBdBdBdBdBdBdBdBdBdB,eBeBeBdBdBdBdBdBcCcCcCcCcCcCcCcC,dBdBdBdBdBdBdCcCcCcCcCcCcCcCcAcAcAcAeBeBeBeBeBeB,dAdAdBdBdBdBdBcBcBcBcBcBdBdBdBdBdB,x,dBdBdBdBdBdBdBdBdBdBdBdBdBdBdBdBdBcCcCdBdBdBeBeBeBeBeBeBeBeBeBeB,dBdBdBdBcCcCcCcCcBcBcBcBcB,dBdBdBcAcAcAcAcCcCcCcCcAcAcAcAcAcAcCcCcCcCdBdBdBdBdBdBcAcAcAcAcAcAcAcCcCcCcCcCcCcCcCcCdBdBdBdBdBdBdBdBdBdBcAcAcAcAcAcAcAcCcCcCcCcCbBbB,dBdBdBdBdBdBdBdBdBdBcCcCcCcCcCcCdBdBdBdBdBdBdBdBeBeBeB,dAdBdBcCcCcCdBdBdBdBdBdBdBdB,eBeBeBdBdBdBdCdCdCdCdBdBdBdBdBdBdCdCdCdCdC,dBdBdBdBdBdBdBdBdBdBdBdBdBeBeB,dBdBdBdBdBdBdBcCcCcCcCcCcCcAcAcAcAcAcAcAcAcAcCcCcCcC
S11,super,F03,famous,D,83,1743,TRUE,s008,dBdBdBdBdBdBdBdBdBdBdBdBdBdBdBdBdBcCcCdBdBdBeBeBeBeBeBeBeBeBeBeB,dBcBcBcBdBdBdBdBdBdBdBdBdBdBdBdBdBdBdBdBdBdBdBdBdBdBdBdBdBdBdB,dBdBdBdBdBdBdBdBcCcCcCcCcC,eBeBeBeBdBdBdBdBdBdBdBdBdBdB,eBeBeBdBdBdBdBdBcCcCcCcCcCcCcCcC,dBdBdBdBdBdBdCcCcCcCcCcCcCcCcAcAcAcAeBeBeBeBeBeB,dAdAdBdBdBdBdBcBcBcBcBcBdBdBdBdBdB,cCcCcCdBdBdBdBdBdBdBdBdBdBdBdBdBdBdB,x,dBdBdBdBcCcCcCcCcBcBcBcBcB,dBdBdBcAcAcAcAcCcCcCcCcAcAcAcAcAcAcCcCcCcCdBdBdBdBdBdBcAcAcAcAcAcAcAcCcCcCcCcCcCcCcCcCdBdBdBdBdBdBdBdBdBdBcAcAcAcAcAcAcAcCcCcCcCcCbBbB,dBdBdBdBdBdBdBdBdBdBcCcCcCcCcCcCdBdBdBdBdBdBdBdBeBeBeB,dAdBdBcCcCcCdBdBdBdBdBdBdBdB,eBeBeBdBdBdBdCdCdCdCdBdBdBdBdBdBdCdCdCdCdC,dBdBdBdBdBdBdBdBdBdBdBdBdBeBeB,dBdBdBdBdBdBdBcCcCcCcCcCcCcAcAcAcAcAcAcAcAcAcCcCcCcC
S12,super,F03,famous,D,139,676,TRUE,s009,dBdBdBdBcCcCcCcCcBcBcBcBcB,dBcBcBcBdBdBdBdBdBdBdBdBdBdBdBdBdBdBdBdBdBdBdBdBdBdBdBdBdBdBdB,dBdBdBdBdBdBdBdBcCcCcCcCcC,eBeBeBeBdBdBdBdBdBdBdBdBdBdB,eBeBeBdBdBdBdBdBcCcCcCcCcCcCcCcC,dBdBdBdBdBdBdCcCcCcCcCcCcCcCcAcAcAcAeBeBeBeBeBeB,dAdAdBdBdBdBdBcBcBcBcBcBdBdBdBdBdB,cCcCcCdBdBdBdBdBdBdBdBdBdBdBdBdBdBdB,dBdBdBdBdBdBdBdBdBdBdBdBdBdBdBdBdBcCcCdBdBdBeBeBeBeBeBeBeBeBeBeB,x,dBdBdBcAcAcAcAcCcCcCcCcAcAcAcAcAcAcCcCcCcCdBdBdBdBdBdBcAcAcAcAcAcAcAcCcCcCcCcCcCcCcCcCdBdBdBdBdBdBdBdBdBdBcAcAcAcAcAcAcAcCcCcCcCcCbBbB,dBdBdBdBdBdBdBdBdBdBcCcCcCcCcCcCdBdBdBdBdBdBdBdBeBeBeB,dAdBdBcCcCcCdBdBdBdBdBdBdBdB,eBeBeBdBdBdBdCdCdCdCdBdBdBdBdBdBdCdCdCdCdC,dBdBdBdBdBdBdBdBdBdBdBdBdBeBeB,dBdBdBdBdBdBdBcCcCcCcCcCcCcAcAcAcAcAcAcAcAcAcCcCcCcC
S13,super,F03,famous,D,44,3479,TRUE,s010,dBdBdBcAcAcAcAcCcCcCcCcAcAcAcAcAcAcCcCcCcCdBdBdBdBdBdBcAcAcAcAcAcAcAcCcCcCcCcCcCcCcCcCdBdBdBdBdBdBdBdBdBdBcAcAcAcAcAcAcAcCcCcCcCcCbBbB,dBcBcBcBdBdBdBdBdBdBdBdBdBdBdBdBdBdBdBdBdBdBdBdBdBdBdBdBdBdBdB,dBdBdBdBdBdBdBdBcCcCcCcCcC,eBeBeBeBdBdBdBdBdBdBdBdBdBdB,eBeBeBdBdBdBdBdBcCcCcCcCcCcCcCcC,dBdBdBdBdBdBdCcCcCcCcCcCcCcCcAcAcAcAeBeBeBeBeBeB,dAdAdBdBdBdBdBcBcBcBcBcBdBdBdBdBdB,cCcCcCdBdBdBdBdBdBdBdBdBdBdBdBdBdBdB,dBdBdBdBdBdBdBdBdBdBdBdBdBdBdBdBdBcCcCdBdBdBeBeBeBeBeBeBeBeBeBeB,dBdBdBdBcCcCcCcCcBcBcBcBcB,x,dBdBdBdBdBdBdBdBdBdBcCcCcCcCcCcCdBdBdBdBdBdBdBdBeBeBeB,dAdBdBcCcCcCdBdBdBdBdBdBdBdB,eBeBeBdBdBdBdCdCdCdCdBdBdBdBdBdBdCdCdCdCdC,dBdBdBdBdBdBdBdBdBdBdBdBdBeBeB,dBdBdBdBdBdBdBcCcCcCcCcCcCcAcAcAcAcAcAcAcAcAcCcCcCcC
S14,super,F03,famous,D,51,1310,TRUE,s011,dBdBdBdBdBdBdBdBdBdBcCcCcCcCcCcCdBdBdBdBdBdBdBdBeBeBeB,dBcBcBcBdBdBdBdBdBdBdBdBdBdBdBdBdBdBdBdBdBdBdBdBdBdBdBdBdBdBdB,dBdBdBdBdBdBdBdBcCcCcCcCcC,eBeBeBeBdBdBdBdBdBdBdBdBdBdB,eBeBeBdBdBdBdBdBcCcCcCcCcCcCcCcC,dBdBdBdBdBdBdCcCcCcCcCcCcCcCcAcAcAcAeBeBeBeBeBeB,dAdAdBdBdBdBdBcBcBcBcBcBdBdBdBdBdB,cCcCcCdBdBdBdBdBdBdBdBdBdBdBdBdBdBdB,dBdBdBdBdBdBdBdBdBdBdBdBdBdBdBdBdBcCcCdBdBdBeBeBeBeBeBeBeBeBeBeB,dBdBdBdBcCcCcCcCcBcBcBcBcB,dBdBdBcAcAcAcAcCcCcCcCcAcAcAcAcAcAcCcCcCcCdBdBdBdBdBdBcAcAcAcAcAcAcAcCcCcCcCcCcCcCcCcCdBdBdBdBdBdBdBdBdBdBcAcAcAcAcAcAcAcCcCcCcCcCbBbB,x,dAdBdBcCcCcCdBdBdBdBdBdBdBdB,eBeBeBdBdBdBdCdCdCdCdBdBdBdBdBdBdCdCdCdCdC,dBdBdBdBdBdBdBdBdBdBdBdBdBeBeB,dBdBdBdBdBdBdBcCcCcCcCcCcCcAcAcAcAcAcAcAcAcAcCcCcCcC
