subj,ability,face,fame,angle,trial,rt,acc,sq,s001,s002,s003,s004,s005,s006,s007,s008,s009,s010,s011,s012,s013,s014,s015
S01,super,F01,famous,A,52,916,TRUE,s001,<undefined>,0.36842,0.38197,-0.1797,0.0098048,0.36842,0.30753,0.84211,-0.10075,-0.25531,0.38648,0.53083,-0.43679,0.19776,-0.24486
S02,super,F01,famous,A,94,516,TRUE,s002,0.36842,<undefined>,0.67857,-0.076923,0.1735,0.69231,0.57756,0.47059,0.18962,-0.2839,0.6,0.67857,-0.4326,0.5066,-0.27754
S03,super,F01,famous,A,151,812,TRUE,s003,0.38197,0.67857,<undefined>,0.035714,0.49492,0.67857,0.89898,0.48573,0.14286,-0.096405,0.5,0.79797,-0.11117,0.75,-0.063258
S04,super,F01,famous,A,46,836,TRUE,s004,-0.1797,-0.076923,0.035714,<undefined>,-0.17857,-0.063725,0.035714,-0.14201,-0.5,-0.4375,-0.2,0.035714,-0.60714,0.23077,-0.2612
S07,super,F01,famous,A,21,863,TRUE,s005,0.0098048,0.1735,0.49492,-0.17857,<undefined>,0.27451,0.59594,0.069782,0,0.031557,0.028595,0.29289,-0.034663,0.40511,0.087769
S09,super,F01,famous,A,142,838,TRUE,s006,0.36842,0.69231,0.67857,-0.063725,0.27451,<undefined>,0.67857,0.47059,0.11538,-0.22498,0.6,0.67857,-0.33158,0.61538,-0.2102
S10,super,F01,famous,A,17,676,TRUE,s007,0.30753,0.57756,0.89898,0.035714,0.59594,0.67857,<undefined>,0.40254,0.14286,-0.037479,0.40572,0.69695,-0.010153,0.75,0.0040851
S11,super,F01,famous,A,144,807,TRUE,s008,0.84211,0.47059,0.48573,-0.14201,0.069782,0.47059,0.40254,<undefined>,-0.053777,-0.26246,0.49077,0.65211,-0.42935,0.27984,-0.25303
S12,super,F01,famous,A,119,543,TRUE,s009,-0.10075,0.18962,0.14286,-0.5,0,0.11538,0.14286,-0.053777,<undefined>,-0.125,0.0057191,0.14286,-0.16019,0.11538,-0.21429
S13,super,F01,famous,A,67,1187,TRUE,s010,-0.25531,-0.2839,-0.096405,-0.4375,0.031557,-0.22498,-0.037479,-0.26246,-0.125,<undefined>,-0.033905,-0.21426,0.29167,-0.14879,0.1875
S14,super,F01,famous,A,89,708,TRUE,s011,0.38648,0.6,0.5,-0.2,0.028595,0.6,0.40572,0.49077,0.0057191,-0.033905,<undefined>,0.5781,-0.19902,0.30572,-0.13469
S15,super,F01,famous,A,94,981,TRUE,s012,0.53083,0.67857,0.79797,0.035714,0.29289,0.67857,0.69695,0.65211,0.14286,-0.21426,0.5781,<undefined>,-0.3132,0.54797,-0.19795
S17,super,F01,famous,A,124,998,TRUE,s013,-0.43679,-0.4326,-0.11117,-0.60714,-0.034663,-0.33158,-0.010153,-0.42935,-0.16019,0.29167,-0.19902,-0.3132,<undefined>,-0.20098,0.16667
S90,super,F01,famous,A,79,783,TRUE,s014,0.19776,0.5066,0.75,0.23077,0.40511,0.61538,0.75,0.27984,0.11538,-0.14879,0.30572,0.54797,-0.20098,<undefined>,-0.10679
S91,super,F01,famous,A,10,1198,TRUE,s015,-0.24486,-0.27754,-0.063258,-0.2612,0.087769,-0.2102,0.0040851,-0.25303,-0.21429,0.1875,-0.13469,-0.19795,0.16667,-0.10679,<undefined>
S01,super,F01,famous,B,36,860,TRUE,s001,<undefined>,-0.17538,-0.13889,0.03731,-0.16667,0.30556,-0.046024,-0.0082555,0.083333,-0.20639,-0.11111,-0.34123,-0.083333,-0.18015,0.14061
S02,super,F01,famous,B,83,649,TRUE,s002,-0.17538,<undefined>,0.61538,-0.076923,-0.14997,0.24539,0.62198,0.37745,0.089101,-0.1867,0.65385,0.14108,0.38462,0.10714,0.15789
S03,super,F01,famous,B,104,769,TRUE,s003,-0.13889,0.61538,<undefined>,0.2121,-0.16513,0.39749,0.5,0.30302,0.26975,-0.29851,0.88462,-0.020527,0.58352,0.32143,-0.10526
S04,super,F01,famous,B,110,890,TRUE,s004,0.03731,-0.076923,0.2121,<undefined>,0.067862,-0.20502,-0.25603,-0.23607,0.18656,-0.27831,0.09672,-0.046415,-0.20437,-0.35102,-0.2451
S07,super,F01,famous,B,8,1006,TRUE,s005,-0.16667,-0.14997,-0.16513,0.067862,<undefined>,-0.3218,-0.30622,-0.29695,-0.06805,0.017241,-0.25888,0.125,-0.46247,-0.61872,0.066177
S09,super,F01,famous,B,38,990,TRUE,s006,0.30556,0.24539,0.39749,-0.20502,-0.3218,<undefined>,0.35799,0.56618,0.034458,-0.1261,0.39245,-0.29743,0.52941,0.38235,0.048891
S10,super,F01,famous,B,42,583,TRUE,s007,-0.046024,0.62198,0.5,-0.25603,-0.30622,0.35799,<undefined>,0.44737,0.039504,-0.18374,0.58333,-0.12944,0.57692,0.28571,0.13158
S11,super,F01,famous,B,142,911,TRUE,s008,-0.0082555,0.37745,0.30302,-0.23607,-0.29695,0.56618,0.44737,<undefined>,0.0052897,-0.14038,0.2985,-0.011996,0.42105,0.23684,0.32482
S12,super,F01,famous,B,71,807,TRUE,s009,0.083333,0.089101,0.26975,0.18656,-0.06805,0.034458,0.039504,0.0052897,<undefined>,-0.10345,0.18152,0.025231,0,-0.17142,-0.10526
S13,super,F01,famous,B,30,1582,TRUE,s010,-0.20639,-0.1867,-0.29851,-0.27831,0.017241,-0.1261,-0.18374,-0.14038,-0.10345,<undefined>,-0.32759,0.043357,-0.26995,-0.22414,-0.0083669
S14,super,F01,famous,B,71,554,TRUE,s011,-0.11111,0.65385,0.88462,0.09672,-0.25888,0.39245,0.58333,0.2985,0.18152,-0.32759,<undefined>,-0.077665,0.62198,0.35714,-0.078947
S15,super,F01,famous,B,15,760,TRUE,s012,-0.34123,0.14108,-0.020527,-0.046415,0.125,-0.29743,-0.12944,-0.011996,0.025231,0.043357,-0.077665,<undefined>,-0.31158,-0.46339,0.14964
S17,super,F01,famous,B,8,1684,TRUE,s013,-0.083333,0.38462,0.58352,-0.20437,-0.46247,0.52941,0.57692,0.42105,0,-0.26995,0.62198,-0.31158,<undefined>,0.39286,0.0090302
S90,super,F01,famous,B,86,886,TRUE,s014,-0.18015,0.10714,0.32143,-0.35102,-0.61872,0.38235,0.28571,0.23684,-0.17142,-0.22414,0.35714,-0.46339,0.39286,<undefined>,-0.17518
S91,super,F01,famous,B,36,996,TRUE,s015,0.14061,0.15789,-0.10526,-0.2451,0.066177,0.048891,0.13158,0.32482,-0.10526,-0.0083669,-0.078947,0.14964,0.0090302,-0.17518,<undefined>
S01,super,F01,famous,C,83,1176,TRUE,s001,<undefined>,0.041667,0.0625,-0.013684,0.055964,0.083333,0.375,0.5625,0.083333,-0.1589,0.25,0.090482,-0.1345,0.33333,0.47917
S02,super,F01,famous,C,57,587,TRUE,s002,0.041667,<undefined>,0.5,-0.14706,-0.27854,0.34763,0.42857,0.18421,0.41667,-0.3652,0.42857,0.14645,-0.29657,0.3125,0.065217
S03,super,F01,famous,C,112,806,TRUE,s003,0.0625,0.5,<undefined>,0.068916,-0.18365,0.62198,0.34594,0.12332,0.26923,-0.16954,0.60714,0.23737,-0.2102,0.20358,0.014919
S04,super,F01,famous,C,65,1044,TRUE,s004,-0.013684,-0.14706,0.068916,<undefined>,-0.029412,0.26471,-0.25879,-0.27064,-0.17142,0,0.24034,-0.20588,-0.047619,-0.013407,-0.13661
S07,super,F01,famous,C,91,892,TRUE,s005,0.055964,-0.27854,-0.18365,-0.029412,<undefined>,0.054097,-0.23669,-0.30598,-0.1306,0.28261,0.066352,0.02451,0.11905,-0.34283,-0.33973
S09,super,F01,famous,C,145,704,TRUE,s006,0.083333,0.34763,0.62198,0.26471,0.054097,<undefined>,0.078608,-0.073658,0.31311,-0.024829,0.6847,0.16667,-0.18639,0.0062816,-0.1478
S10,super,F01,famous,C,101,674,TRUE,s007,0.375,0.42857,0.34594,-0.25879,-0.23669,0.078608,<undefined>,0.60526,0.38165,-0.39375,0.39391,0.22654,-0.24556,0.6875,0.41304
S11,super,F01,famous,C,21,913,TRUE,s008,0.5625,0.18421,0.12332,-0.27064,-0.30598,-0.073658,0.60526,<undefined>,0.14964,-0.37511,0.15867,0.035346,-0.22514,0.55263,0.73913
S12,super,F01,famous,C,116,594,TRUE,s009,0.083333,0.41667,0.26923,-0.17142,-0.1306,0.31311,0.38165,0.14964,<undefined>,-0.15526,0.5,0.083333,-0.15033,0.27145,0.036659
S13,super,F01,famous,C,116,1189,TRUE,s010,-0.1589,-0.3652,-0.16954,0,0.28261,-0.024829,-0.39375,-0.37511,-0.15526,<undefined>,-0.10433,-0.11179,0.34783,-0.48817,-0.46206
S14,super,F01,famous,C,60,652,TRUE,s011,0.25,0.42857,0.60714,0.24034,0.066352,0.6847,0.39391,0.15867,0.5,-0.10433,<undefined>,0.1847,-0.28163,0.20895,0.044118
S15,super,F01,famous,C,41,756,TRUE,s012,0.090482,0.14645,0.23737,-0.20588,0.02451,0.16667,0.22654,0.035346,0.083333,-0.11179,0.1847,<undefined>,0.11905,0.13572,-0.057758
S17,super,F01,famous,C,160,1280,TRUE,s013,-0.1345,-0.29657,-0.2102,-0.047619,0.11905,-0.18639,-0.24556,-0.22514,-0.15033,0.34783,-0.28163,0.11905,<undefined>,-0.1585,-0.19501
S90,super,F01,famous,C,45,951,TRUE,s014,0.33333,0.3125,0.20358,-0.013407,-0.34283,0.0062816,0.6875,0.55263,0.27145,-0.48817,0.20895,0.13572,-0.1585,<undefined>,0.54348
S91,super,F01,famous,C,45,1314,TRUE,s015,0.47917,0.065217,0.014919,-0.13661,-0.33973,-0.1478,0.41304,0.73913,0.036659,-0.46206,0.044118,-0.057758,-0.19501,0.54348,<undefined>
S01,super,F01,famous,D,89,1316,TRUE,s001,<undefined>,0.11111,0.12963,0.2963,-0.079338,0.2037,0.33333,0.22015,0.13281,0.10267,0.08996,0.31481,0.059278,0.074074,0.049746
S02,super,F01,famous,D,19,739,TRUE,s002,0.11111,<undefined>,0.33905,0.17075,-0.095238,0.56667,0.6,0.051282,-0.20474,-0.29779,0.10447,0.40625,0.068182,0.4,0.047619
S03,super,F01,famous,D,5,848,TRUE,s003,0.12963,0.33905,<undefined>,0.5,-0.091153,0.65511,0.63333,-0.064103,-0.14181,-0.26263,0.083947,0.5,0.07988,0.39286,0.079599
S04,super,F01,famous,D,39,1399,TRUE,s004,0.2963,0.17075,0.5,<undefined>,-0.20203,0.36531,0.42857,-0.025641,-0.042833,-0.19834,0.14356,0.35714,0.027296,0.19048,0.0081701
S07,super,F01,famous,D,18,1215,TRUE,s005,-0.079338,-0.095238,-0.091153,-0.20203,<undefined>,0.059874,0.02451,-0.25823,0.01634,0.17034,0.21429,-0.055088,0.21234,-0.095238,0.17554
S09,super,F01,famous,D,97,836,TRUE,s006,0.2037,0.56667,0.65511,0.36531,0.059874,<undefined>,0.76667,-0.012821,-0.058122,-0.20437,0.30806,0.625,0.27273,0.53571,0.30952
S10,super,F01,famous,D,152,706,TRUE,s007,0.33333,0.6,0.63333,0.42857,0.02451,0.76667,<undefined>,0.076923,-0.048528,-0.16921,0.22503,0.75536,0.18572,0.53333,0.2381
S11,super,F01,famous,D,2,2574,TRUE,s008,0.22015,0.051282,-0.064103,-0.025641,-0.25823,-0.012821,0.076923,<undefined>,-0.20513,-0.25603,-0.14285,0.027841,-0.040284,0,-0.16447
S12,super,F01,famous,D,95,624,TRUE,s009,0.13281,-0.20474,-0.14181,-0.042833,0.01634,-0.058122,-0.048528,-0.20513,<undefined>,0.096154,0.078585,0.12592,0.094808,-0.15931,0.0081701
S13,super,F01,famous,D,134,1253,TRUE,s010,0.10267,-0.29779,-0.26263,-0.19834,0.17034,-0.20437,-0.16921,-0.25603,0.096154,<undefined>,-0.025264,-0.041195,0.11925,-0.26593,0.07089
S14,super,F01,famous,D,8,906,TRUE,s011,0.08996,0.10447,0.083947,0.14356,0.21429,0.30806,0.22503,-0.14285,0.078585,-0.025264,<undefined>,0.35983,0.098708,0.067862,0.0040851
S15,super,F01,famous,D,138,907,TRUE,s012,0.31481,0.40625,0.5,0.35714,-0.055088,0.625,0.75536,0.027841,0.12592,-0.041195,0.35983,<undefined>,0.21624,0.46875,0.21429
S17,super,F01,famous,D,98,1399,TRUE,s013,0.059278,0.068182,0.07988,0.027296,0.21234,0.27273,0.18572,-0.040284,0.094808,0.11925,0.098708,0.21624,<undefined>,0.25,0.11364
S90,super,F01,famous,D,127,756,TRUE,s014,0.074074,0.4,0.39286,0.19048,-0.095238,0.53571,0.53333,0,-0.15931,-0.26593,0.067862,0.46875,0.25,<undefined>,0
S91,super,F01,famous,D,93,1300,TRUE,s015,0.049746,0.047619,0.079599,0.0081701,0.17554,0.30952,0.2381,-0.16447,0.0081701,0.07089,0.0040851,0.21429,0.11364,0,<undefined>
S01,super,F02,famous,A,73,1135,TRUE,s001,<undefined>,0.061052,0.19742,-0.12077,0.18182,-0.20455,0.38636,0.24287,0.31818,-0.19767,0.12923,-0.037656,0.038325,0.045455,0.53443
S02,super,F02,famous,A,26,707,TRUE,s002,0.061052,<undefined>,0.6847,-0.11111,0.38165,0.041667,0.44947,0.19822,0.5286,-0.24419,0.16667,0.63215,0.56667,0.16667,0.42143
S03,super,F02,famous,A,38,933,TRUE,s003,0.19742,0.6847,<undefined>,-0.11111,0.59594,-0.035714,0.58981,0.34911,0.58368,-0.20731,0.33905,0.47041,0.56667,0.21429,0.5881
S04,super,F02,famous,A,25,1012,TRUE,s004,-0.12077,-0.11111,-0.11111,<undefined>,-0.22222,-0.35553,-0.083333,0.11111,-0.11111,-0.34849,-0.38807,-0.22222,-0.20792,0.16667,-0.036492
S07,super,F02,famous,A,61,851,TRUE,s005,0.18182,0.38165,0.59594,-0.22222,<undefined>,-0.035714,0.60714,0.375,0.64286,-0.22093,0.3,0.3694,0.28382,0.28571,0.43096
S09,super,F02,famous,A,146,656,TRUE,s006,-0.20455,0.041667,-0.035714,-0.35553,-0.035714,<undefined>,0,-0.057138,0.041667,-0.11628,-0.14951,0.045455,-0.13333,-0.375,-0.13889
S10,super,F02,famous,A,74,616,TRUE,s007,0.38636,0.44947,0.58981,-0.083333,0.60714,0,<undefined>,0.50536,0.88462,-0.23256,0.41144,0.28243,0.2781,0.42308,0.58333
S11,super,F02,famous,A,132,796,TRUE,s008,0.24287,0.19822,0.34911,0.11111,0.375,-0.057138,0.50536,<undefined>,0.5,-0.10465,0.28125,0.13572,0.078585,0.125,0.37541
S12,super,F02,famous,A,117,634,TRUE,s009,0.31818,0.5286,0.58368,-0.11111,0.64286,0.041667,0.88462,0.5,<undefined>,-0.24419,0.40572,0.34763,0.27239,0.5,0.5
S13,super,F02,famous,A,85,2146,TRUE,s010,-0.19767,-0.24419,-0.20731,-0.34849,-0.22093,-0.11628,-0.23256,-0.10465,-0.24419,<undefined>,-0.11628,-0.26744,-0.21894,-0.38372,-0.17442
S14,super,F02,famous,A,14,738,TRUE,s011,0.12923,0.16667,0.33905,-0.38807,0.3,-0.14951,0.41144,0.28125,0.40572,-0.11628,<undefined>,0.13905,0.17239,0.033333,0.26906
S15,super,F02,famous,A,148,744,TRUE,s012,-0.037656,0.63215,0.47041,-0.22222,0.3694,0.045455,0.28243,0.13572,0.34763,-0.26744,0.13905,<undefined>,0.33905,0.16667,0.25477
S17,super,F02,famous,A,85,1074,TRUE,s013,0.038325,0.56667,0.56667,-0.20792,0.28382,-0.13333,0.2781,0.078585,0.27239,-0.21894,0.17239,0.33905,<undefined>,0.095262,0.39365
S90,super,F02,famous,A,85,752,TRUE,s014,0.045455,0.16667,0.21429,0.16667,0.28571,-0.375,0.42308,0.125,0.5,-0.38372,0.033333,0.16667,0.095262,<undefined>,0.16667
S91,super,F02,famous,A,73,1090,TRUE,s015,0.53443,0.42143,0.5881,-0.036492,0.43096,-0.13889,0.58333,0.37541,0.5,-0.17442,0.26906,0.25477,0.39365,0.16667,<undefined>
S01,super,F02,famous,B,127,1216,TRUE,s001,<undefined>,0.20455,0.31818,0.075981,-0.14349,0.20455,0.27273,0.29545,-0.041555,-0.45388,0.13636,0.25,-0.28376,0.11364,0.19742
S02,super,F02,famous,B,155,527,TRUE,s002,0.20455,<undefined>,0.70833,0.2,0.2253,1,0.67857,0.6,0.30421,-0.18569,0.75715,0.76923,-0.018246,0.36364,-0.175
S03,super,F02,famous,B,87,778,TRUE,s003,0.31818,0.70833,<undefined>,0.40572,0.09672,0.70833,0.57143,0.5,0.20588,-0.26529,0.58333,0.65385,-0.10158,0.29167,-0.25
S04,super,F02,famous,B,77,1012,TRUE,s004,0.075981,0.2,0.40572,<undefined>,0.33333,0.2,0.21716,0.22288,0.23529,-0.067344,0.36667,0.21144,0.060321,-0.13333,-0.175
S07,super,F02,famous,B,134,823,TRUE,s005,-0.14349,0.2253,0.09672,0.33333,<undefined>,0.2253,0.18575,0.14003,0.27984,0.29388,0.44947,0.2385,0.41667,0,-0.475
S09,super,F02,famous,B,115,698,TRUE,s006,0.20455,1,0.70833,0.2,0.2253,<undefined>,0.67857,0.6,0.30421,-0.18569,0.75715,0.76923,-0.018246,0.36364,-0.175
S10,super,F02,famous,B,27,669,TRUE,s007,0.27273,0.67857,0.57143,0.21716,0.18575,0.67857,<undefined>,0.9,0.31935,-0.17344,0.58368,0.89286,-0.0039482,0.17857,-0.1
S11,super,F02,famous,B,139,742,TRUE,s008,0.29545,0.6,0.5,0.22288,0.14003,0.6,0.9,<undefined>,0.3244,-0.16935,0.51144,0.8,0.0008177,0.13333,-0.095711
S12,super,F02,famous,B,93,839,TRUE,s009,-0.041555,0.30421,0.20588,0.23529,0.27984,0.30421,0.31935,0.3244,<undefined>,0.091854,0.47563,0.3143,0.083333,0.058824,-0.045711
S13,super,F02,famous,B,148,1001,TRUE,s010,-0.45388,-0.18569,-0.26529,-0.067344,0.29388,-0.18569,-0.17344,-0.16935,0.091854,<undefined>,-0.046918,-0.17752,0.5,-0.30544,-0.071429
S14,super,F02,famous,B,39,588,TRUE,s011,0.13636,0.75715,0.58333,0.36667,0.44947,0.75715,0.58368,0.51144,0.47563,-0.046918,<undefined>,0.66704,0.14365,0.29167,-0.25
S15,super,F02,famous,B,72,782,TRUE,s012,0.25,0.76923,0.65385,0.21144,0.2385,0.76923,0.89286,0.8,0.3143,-0.17752,0.66704,<undefined>,-0.0087141,0.23077,-0.125
S17,super,F02,famous,B,47,1128,TRUE,s013,-0.28376,-0.018246,-0.10158,0.060321,0.41667,-0.018246,-0.0039482,0.0008177,0.083333,0.5,0.14365,-0.0087141,<undefined>,-0.25,-0.1
S90,super,F02,famous,B,98,701,TRUE,s014,0.11364,0.36364,0.29167,-0.13333,0,0.36364,0.17857,0.13333,0.058824,-0.30544,0.29167,0.23077,-0.25,<undefined>,-0.025
S91,super,F02,famous,B,125,1152,TRUE,s015,0.19742,-0.175,-0.25,-0.175,-0.475,-0.175,-0.1,-0.095711,-0.045711,-0.071429,-0.25,-0.125,-0.1,-0.025,<undefined>
S01,super,F02,famous,C,37,931,TRUE,s001,<undefined>,0.15715,0.23529,0.86111,0.51009,0.73529,0.73529,0.66667,0.21093,-0.052584,-0.0092267,-0.14201,-0.39994,0.33867,-0.43227
S02,super,F02,famous,C,147,738,TRUE,s002,0.15715,<undefined>,0.23737,0.1762,0.25613,0.29797,0.29797,0.03198,-0.033333,-0.35584,0,-0.17911,-0.26569,0.36667,-0.57817
S03,super,F02,famous,C,154,813,TRUE,s003,0.23529,0.23737,<undefined>,0.25,0.25,0.39286,0.39286,0.095238,-0.2,-0.29545,-0.038462,-0.30769,-0.63235,0.33333,-0.55186
S04,super,F02,famous,C,70,1158,TRUE,s004,0.86111,0.1762,0.25,<undefined>,0.43096,0.66667,0.66667,0.7381,0.17143,-0.056484,-0.036492,-0.1619,-0.42851,0.29208,-0.42776
S07,super,F02,famous,C,99,964,TRUE,s005,0.51009,0.25613,0.25,0.43096,<undefined>,0.69695,0.69695,0.29797,0.3,-0.08311,0.054097,-0.10714,-0.13709,0.3,-0.50748
S09,super,F02,famous,C,78,672,TRUE,s006,0.73529,0.29797,0.39286,0.66667,0.69695,<undefined>,1,0.5,0.3,-0.045455,0.095939,-0.065301,-0.41993,0.44477,-0.41499
S10,super,F02,famous,C,37,686,TRUE,s007,0.73529,0.29797,0.39286,0.66667,0.69695,1,<undefined>,0.5,0.3,-0.045455,0.095939,-0.065301,-0.41993,0.44477,-0.41499
S11,super,F02,famous,C,36,1017,TRUE,s008,0.66667,0.03198,0.095238,0.7381,0.29797,0.5,0.5,<undefined>,0.075514,-0.018159,-0.10271,-0.2102,-0.43872,0.17892,-0.40266
S12,super,F02,famous,C,159,797,TRUE,s009,0.21093,-0.033333,-0.2,0.17143,0.3,0.3,0.3,0.075514,<undefined>,0.2578,0.11144,0.26667,-0.13807,-0.13333,-0.19247
S13,super,F02,famous,C,107,1136,TRUE,s010,-0.052584,-0.35584,-0.29545,-0.056484,-0.08311,-0.045455,-0.045455,-0.018159,0.2578,<undefined>,0.13636,0.18572,-0.17012,-0.15909,0.27663
S14,super,F02,famous,C,123,563,TRUE,s011,-0.0092267,0,-0.038462,-0.036492,0.054097,0.095939,0.095939,-0.10271,0.11144,0.13636,<undefined>,0.31429,-0.060948,-0.1,-0.060887
S15,super,F02,famous,C,52,818,TRUE,s012,-0.14201,-0.17911,-0.30769,-0.1619,-0.10714,-0.065301,-0.065301,-0.2102,0.26667,0.18572,0.31429,<undefined>,-0.18856,-0.13333,-0.12706
S17,super,F02,famous,C,52,949,TRUE,s013,-0.39994,-0.26569,-0.63235,-0.42851,-0.13709,-0.41993,-0.41993,-0.43872,-0.13807,-0.17012,-0.060948,-0.18856,<undefined>,-0.28758,-0.42105
S90,super,F02,famous,C,35,879,TRUE,s014,0.33867,0.36667,0.33333,0.29208,0.3,0.44477,0.44477,0.17892,-0.13333,-0.15909,-0.1,-0.13333,-0.28758,<undefined>,-0.59546
S91,super,F02,famous,C,4,1095,TRUE,s015,-0.43227,-0.57817,-0.55186,-0.42776,-0.50748,-0.41499,-0.41499,-0.40266,-0.19247,0.27663,-0.060887,-0.12706,-0.42105,-0.59546,<undefined>
S01,super,F02,famous,D,9,1052,TRUE,s001,<undefined>,0.31818,0.2578,0.32598,-0.25646,0.29545,0.31818,0.35261,-0.15842,0.039304,0.38636,0.36364,-0.094139,0.27273,0.18572
S02,super,F02,famous,D,84,586,TRUE,s002,0.31818,<undefined>,0.66704,0.25613,-0.094456,0.36667,1,0.5,-0.046024,0.09235,0.88462,0.78571,-0.28033,0.91667,0.30952
S03,super,F02,famous,D,148,632,TRUE,s003,0.2578,0.66704,<undefined>,0.53571,-0.22304,0.2,0.66704,0.58333,0.12541,0.0030638,0.67364,0.54797,-0.0098034,0.62198,0.17075
S04,super,F02,famous,D,116,913,TRUE,s004,0.32598,0.25613,0.53571,<undefined>,-0.25,0.29526,0.25613,0.33333,0.032544,-0.11581,0.26226,0.20921,0.22411,0.21429,-0.035364
S07,super,F02,famous,D,139,987,TRUE,s005,-0.25646,-0.094456,-0.22304,-0.25,<undefined>,-0.20474,-0.094456,-0.23488,0.083333,0.14592,-0.087857,-0.15914,-0.24464,-0.13952,0.17075
S09,super,F02,famous,D,110,935,TRUE,s006,0.29545,0.36667,0.2,0.29526,-0.20474,<undefined>,0.36667,0.13889,0.046841,0.017857,0.4,0.3781,0.12592,0.3,0.28571
S10,super,F02,famous,D,62,588,TRUE,s007,0.31818,1,0.66704,0.25613,-0.094456,0.36667,<undefined>,0.5,-0.046024,0.09235,0.88462,0.78571,-0.28033,0.91667,0.30952
S11,super,F02,famous,D,42,854,TRUE,s008,0.35261,0.5,0.58333,0.33333,-0.23488,0.13889,0.5,<undefined>,0.24129,-0.014793,0.50477,0.44444,0.18573,0.44444,0.16667
S12,super,F02,famous,D,87,870,TRUE,s009,-0.15842,-0.046024,0.12541,0.032544,0.083333,0.046841,-0.046024,0.24129,<undefined>,0.012255,-0.041258,-0.10158,0.61111,-0.078567,-0.0074692
S13,super,F02,famous,D,109,1394,TRUE,s010,0.039304,0.09235,0.0030638,-0.11581,0.14592,0.017857,0.09235,-0.014793,0.012255,<undefined>,0.095413,0.056635,-0.12194,0.071429,0.39592
S14,super,F02,famous,D,154,643,TRUE,s011,0.38636,0.88462,0.67364,0.26226,-0.087857,0.4,0.88462,0.50477,-0.041258,0.095413,<undefined>,0.82143,-0.27497,0.80769,0.33333
S15,super,F02,famous,D,91,882,TRUE,s012,0.36364,0.78571,0.54797,0.20921,-0.15914,0.3781,0.78571,0.44444,-0.10158,0.056635,0.82143,<undefined>,-0.32138,0.71429,0.2619
S17,super,F02,famous,D,49,1065,TRUE,s013,-0.094139,-0.28033,-0.0098034,0.22411,-0.24464,0.12592,-0.28033,0.18573,0.61111,-0.12194,-0.27497,-0.32138,<undefined>,-0.31694,-0.2095
S90,super,F02,famous,D,65,840,TRUE,s014,0.27273,0.91667,0.62198,0.21429,-0.13952,0.3,0.91667,0.44444,-0.078567,0.071429,0.80769,0.71429,-0.31694,<undefined>,0.2619
S91,super,F02,famous,D,48,1170,TRUE,s015,0.18572,0.30952,0.17075,-0.035364,0.17075,0.28571,0.30952,0.16667,-0.0074692,0.39592,0.33333,0.2619,-0.2095,0.2619,<undefined>
S01,super,F03,famous,A,120,1023,TRUE,s001,<undefined>,0.029412,0.12774,0.1622,0.24034,0.23111,0.24121,0.63279,0.20588,-0.046208,0.093282,0.22607,0.12774,0.088235,0.0803
S02,super,F03,famous,A,65,675,TRUE,s002,0.029412,<undefined>,0.44695,0.4347,-0.34996,-0.50402,0.3,-0.22016,-0.43122,-0.20588,0.33368,0.42857,-0.39902,0.33981,-0.52649
S03,super,F03,famous,A,124,786,TRUE,s003,0.12774,0.44695,<undefined>,0.58352,-0.18458,-0.087857,0.51716,-0.12183,-0.32675,-0.0563,0.69231,0.66704,-0.099019,0.77583,-0.24486
S04,super,F03,famous,A,94,865,TRUE,s004,0.1622,0.4347,0.58352,<undefined>,-0.29336,-0.37688,0.61144,-0.087369,-0.29013,-0.097895,0.53846,0.77583,-0.1933,0.40441,-0.31221
S07,super,F03,famous,A,86,767,TRUE,s005,0.24034,-0.34996,-0.18458,-0.29336,<undefined>,0.57692,-0.32091,0.24034,0.5,-0.10042,-0.32522,-0.27614,0.16667,-0.15829,0.16667
S09,super,F03,famous,A,133,811,TRUE,s006,0.23111,-0.50402,-0.087857,-0.37688,0.57692,<undefined>,-0.42565,0.3143,0.34375,-0.0563,-0.28676,-0.42081,0.23905,0.01433,0.33333
S10,super,F03,famous,A,69,745,TRUE,s007,0.24121,0.3,0.51716,0.61144,-0.32091,-0.42565,<undefined>,-0.0083609,-0.31602,-0.014706,0.53333,0.7,-0.23709,0.32288,-0.43872
S11,super,F03,famous,A,129,811,TRUE,s008,0.63279,-0.22016,-0.12183,-0.087369,0.24034,0.3143,-0.0083609,<undefined>,0.20588,-0.051254,-0.15629,-0.0235,0.010093,-0.16133,0.14286
S12,super,F03,famous,A,137,753,TRUE,s009,0.20588,-0.43122,-0.32675,-0.29013,0.5,0.34375,-0.31602,0.20588,<undefined>,0.046641,-0.4303,-0.33211,0.28125,-0.22855,0.16667
S13,super,F03,famous,A,13,1688,TRUE,s010,-0.046208,-0.20588,-0.0563,-0.097895,-0.10042,-0.0563,-0.014706,-0.051254,0.046641,<undefined>,-0.13235,-0.058824,0.031935,-0.029412,0.044118
S14,super,F03,famous,A,145,634,TRUE,s011,0.093282,0.33368,0.69231,0.53846,-0.32522,-0.28676,0.53333,-0.15629,-0.4303,-0.13235,<undefined>,0.65385,-0.2714,0.57692,-0.368
S15,super,F03,famous,A,111,883,TRUE,s012,0.22607,0.42857,0.66704,0.77583,-0.27614,-0.42081,0.7,-0.0235,-0.33211,-0.058824,0.65385,<undefined>,-0.25425,0.5286,-0.45098
S17,super,F03,famous,A,131,1035,TRUE,s013,0.12774,-0.39902,-0.099019,-0.1933,0.16667,0.23905,-0.23709,0.010093,0.28125,0.031935,-0.2714,-0.25425,<undefined>,-0.14379,-0.019724
S90,super,F03,famous,A,10,766,TRUE,s014,0.088235,0.33981,0.77583,0.40441,-0.15829,0.01433,0.32288,-0.16133,-0.22855,-0.029412,0.57692,0.5286,-0.14379,<undefined>,-0.18161
S91,super,F03,famous,A,129,1076,TRUE,s015,0.0803,-0.52649,-0.24486,-0.31221,0.16667,0.33333,-0.43872,0.14286,0.16667,0.044118,-0.368,-0.45098,-0.019724,-0.18161,<undefined>
S01,super,F03,famous,B,103,1000,TRUE,s001,<undefined>,0.25,0.675,-0.049264,-0.29853,0.175,0.55,0.76087,-0.087132,-0.18343,0.25035,0.012868,-0.062132,0.425,0.76087
S02,super,F03,famous,B,30,782,TRUE,s002,0.25,<undefined>,0.38235,0.14706,-0.21783,0.625,0.5,0.15217,0.18421,-0.27273,0.21429,0.45833,0.05,0.43333,0.15217
S03,super,F03,famous,B,12,1021,TRUE,s003,0.675,0.38235,<undefined>,0.099194,-0.28734,0.29412,0.55882,0.6087,0.048891,-0.27629,0.37757,0.10337,0.025,0.58824,0.6087
S04,super,F03,famous,B,71,1016,TRUE,s004,-0.049264,0.14706,0.099194,<undefined>,0.28489,0.058824,-0.019319,0.0043698,0.26316,-0.17045,-0.042833,0.24539,-0.016421,0.064736,-0.057118
S07,super,F03,famous,B,15,1020,TRUE,s005,-0.29853,-0.21783,-0.28734,0.28489,<undefined>,-0.31158,-0.25888,-0.26332,0.21504,-0.041555,-0.32785,0.089308,-0.14142,-0.22763,-0.32481
S09,super,F03,famous,B,116,687,TRUE,s006,0.175,0.625,0.29412,0.058824,-0.31158,<undefined>,0.46429,0.086957,-0.052632,-0.32955,0.14286,0.41689,-0.175,0.4,0.086957
S10,super,F03,famous,B,85,688,TRUE,s007,0.55,0.5,0.55882,-0.019319,-0.25888,0.46429,<undefined>,0.41304,-0.078947,-0.21396,0.2619,0.23267,-0.14142,0.5781,0.41304
S11,super,F03,famous,B,3,1145,TRUE,s008,0.76087,0.15217,0.6087,0.0043698,-0.26332,0.086957,0.41304,<undefined>,-0.021099,-0.20031,0.23977,0.0074597,-0.021739,0.30435,0.93851
S12,super,F03,famous,B,56,928,TRUE,s009,-0.087132,0.18421,0.048891,0.26316,0.21504,-0.052632,-0.078947,-0.021099,<undefined>,-0.11169,-0.078898,0.052632,0.28358,-0.10526,-0.039108
S13,super,F03,famous,B,57,2154,TRUE,s010,-0.18343,-0.27273,-0.27629,-0.17045,-0.041555,-0.32955,-0.21396,-0.20031,-0.11169,<undefined>,-0.10779,-0.26688,-0.28214,-0.28961,-0.187
S14,super,F03,famous,B,133,1159,TRUE,s011,0.25035,0.21429,0.37757,-0.042833,-0.32785,0.14286,0.2619,0.23977,-0.078898,-0.10779,<undefined>,-0.011554,-0.2619,0.2381,0.2143
S15,super,F03,famous,B,58,687,TRUE,s012,0.012868,0.45833,0.10337,0.24539,0.089308,0.41689,0.23267,0.0074597,0.052632,-0.26688,-0.011554,<undefined>,-0.095711,0.31716,-0.054028
S17,super,F03,famous,B,75,1256,TRUE,s013,-0.062132,0.05,0.025,-0.016421,-0.14142,-0.175,-0.14142,-0.021739,0.28358,-0.28214,-0.2619,-0.095711,<undefined>,-0.066421,-0.021739
S90,super,F03,famous,B,29,861,TRUE,s014,0.425,0.43333,0.58824,0.064736,-0.22763,0.4,0.5781,0.30435,-0.10526,-0.28961,0.2381,0.31716,-0.066421,<undefined>,0.30435
S91,super,F03,famous,B,63,1129,TRUE,s015,0.76087,0.15217,0.6087,-0.057118,-0.32481,0.086957,0.41304,0.93851,-0.039108,-0.187,0.2143,-0.054028,-0.021739,0.30435,<undefined>
S01,super,F03,famous,C,77,1061,TRUE,s001,<undefined>,0.095238,0.22654,0.41013,-0.094537,0.071429,0.35714,0.78571,-0.38025,-0.24665,0.30205,0.15511,0.046124,0.29388,-0.1875
S02,super,F03,famous,C,75,594,TRUE,s002,0.095238,<undefined>,0.46154,0.020833,0.10714,0.29167,0.54167,0.125,-0.38137,-0.21667,0.33333,0.54167,-0.15909,0.46154,-0.1875
S03,super,F03,famous,C,84,837,TRUE,s003,0.22654,0.46154,<undefined>,0.13572,-0.023459,0.26923,0.66704,0.26287,-0.37802,-0.25,0.43905,0.88462,-0.041555,0.89121,-0.020833
S04,super,F03,famous,C,41,1543,TRUE,s004,0.41013,0.020833,0.13572,<undefined>,-0.16963,0,0.25,0.45833,-0.46426,-0.16332,0.15298,0.073223,-0.26726,0.19465,-0.33211
S07,super,F03,famous,C,106,928,TRUE,s005,-0.094537,0.10714,-0.023459,-0.16963,<undefined>,-0.0050763,0.095939,-0.074264,0,-0.027614,-0.049509,-0.029587,0.07988,0.018383,-0.25296
S09,super,F03,famous,C,23,758,TRUE,s006,0.071429,0.29167,0.26923,0,-0.0050763,<undefined>,0.5,0.1,-0.2214,-0.13333,0.23333,0.25,0.0077988,0.34615,0
S10,super,F03,famous,C,148,589,TRUE,s007,0.35714,0.54167,0.66704,0.25,0.095939,0.5,<undefined>,0.4,-0.42851,-0.19428,0.60572,0.64645,-0.045455,0.77583,-0.16667
S11,super,F03,famous,C,157,985,TRUE,s008,0.78571,0.125,0.26287,0.45833,-0.074264,0.1,0.4,<undefined>,-0.45711,-0.1714,0.34216,0.18787,-0.014259,0.33358,-0.13807
S12,super,F03,famous,C,151,679,TRUE,s009,-0.38025,-0.38137,-0.37802,-0.46426,0,-0.2214,-0.42851,-0.45711,<undefined>,0,-0.065685,-0.36785,0.053253,-0.43401,-0.125
S13,super,F03,famous,C,80,1537,TRUE,s010,-0.24665,-0.21667,-0.25,-0.16332,-0.027614,-0.13333,-0.19428,-0.1714,0,<undefined>,0.0028595,-0.26667,-0.063316,-0.23047,0.31953
S14,super,F03,famous,C,58,717,TRUE,s011,0.30205,0.33333,0.43905,0.15298,-0.049509,0.23333,0.60572,0.34216,-0.065685,0.0028595,<undefined>,0.3781,-0.12467,0.53333,-0.15594
S15,super,F03,famous,C,17,963,TRUE,s012,0.15511,0.54167,0.88462,0.073223,-0.029587,0.25,0.64645,0.18787,-0.36785,-0.26667,0.3781,<undefined>,-0.045455,0.77583,-0.041667
S17,super,F03,famous,C,90,1153,TRUE,s013,0.046124,-0.15909,-0.041555,-0.26726,0.07988,0.0077988,-0.045455,-0.014259,0.053253,-0.063316,-0.12467,-0.045455,<undefined>,-0.041555,-0.13511
S90,super,F03,famous,C,101,900,TRUE,s014,0.29388,0.46154,0.89121,0.19465,0.018383,0.34615,0.77583,0.33358,-0.43401,-0.23047,0.53333,0.77583,-0.041555,<undefined>,-0.0625
S91,super,F03,famous,C,160,1344,TRUE,s015,-0.1875,-0.1875,-0.020833,-0.33211,-0.25296,0,-0.16667,-0.13807,-0.125,0.31953,-0.15594,-0.041667,-0.13511,-0.0625,<undefined>
S01,super,F03,famous,D,42,1926,TRUE,s001,<undefined>,-0.099067,0.048387,-0.18754,-0.066334,0.096774,0.27419,0.51562,-0.21474,-0.082931,0.43596,0.0083019,0.12903,0.16129,-0.10871
S02,super,F03,famous,D,51,781,TRUE,s002,-0.099067,<undefined>,0.26226,0.53125,0.21191,0.15211,0.1905,-0.023208,0.30769,-0.20896,0.22222,0.26226,0.19048,0.3286,0.19561
S03,super,F03,famous,D,140,839,TRUE,s003,0.048387,0.26226,<undefined>,0.24556,-0.125,0.33362,0.44444,0.03125,0.0061276,-0.24627,0.12963,0.47041,0.35714,0.56667,-0.16318
S04,super,F03,famous,D,99,983,TRUE,s004,-0.18754,0.53125,0.24556,<undefined>,0.25,0.084055,0.0055836,-0.10892,0.34375,-0.18657,0.17302,-0.041053,0.20273,0.026808,0.26923
S07,super,F03,famous,D,60,1435,TRUE,s005,-0.066334,0.21191,-0.125,0.25,<undefined>,0.020833,-0.034518,0.1777,0.10417,-0.13049,0.42329,-0.034518,-0.068422,0.11132,0.30769
S09,super,F03,famous,D,108,1000,TRUE,s006,0.096774,0.15211,0.33362,0.084055,0.020833,<undefined>,0.41667,0.078125,0.21093,-0.22388,0.18519,0.38235,0.13947,0.41176,-0.060426
S10,super,F03,famous,D,39,868,TRUE,s007,0.27419,0.1905,0.44444,0.0055836,-0.034518,0.41667,<undefined>,0.21117,-0.0087141,-0.097015,0.34287,0.37541,0.21429,0.63889,-0.12745
S11,super,F03,famous,D,83,1743,TRUE,s008,0.51562,-0.023208,0.03125,-0.10892,0.1777,0.078125,0.21117,<undefined>,-0.19776,-0.14541,0.4326,-0.0075825,0.10938,0.20312,-0.12408
S12,super,F03,famous,D,139,676,TRUE,s009,-0.21474,0.30769,0.0061276,0.34375,0.10417,0.21093,-0.0087141,-0.19776,<undefined>,-0.28358,0.037037,0.22041,-0.047619,0.089543,0.057692
S13,super,F03,famous,D,44,3479,TRUE,s010,-0.082931,-0.20896,-0.24627,-0.18657,-0.13049,-0.22388,-0.097015,-0.14541,-0.28358,<undefined>,0.023668,-0.20149,-0.20896,-0.19403,0.039874
S14,super,F03,famous,D,51,1310,TRUE,s011,0.43596,0.22222,0.12963,0.17302,0.42329,0.18519,0.34287,0.4326,0.037037,0.023668,<undefined>,0.24074,0.1762,0.33333,0.15505
S15,super,F03,famous,D,50,836,TRUE,s012,0.0083019,0.26226,0.47041,-0.041053,-0.034518,0.38235,0.37541,-0.0075825,0.22041,-0.20149,0.24074,<undefined>,0.21429,0.51144,-0.16318
S17,super,F03,famous,D,68,1228,TRUE,s013,0.12903,0.19048,0.35714,0.20273,-0.068422,0.13947,0.21429,0.10938,-0.047619,-0.20896,0.1762,0.21429,<undefined>,0.24627,-0.11482
S90,super,F03,famous,D,158,880,TRUE,s014,0.16129,0.3286,0.56667,0.026808,0.11132,0.41176,0.63889,0.20312,0.089543,-0.19403,0.33333,0.51144,0.24627,<undefined>,-0.11482
S91,super,F03,famous,D,91,1558,TRUE,s015,-0.10871,0.19561,-0.16318,0.26923,0.30769,-0.060426,-0.12745,-0.12408,0.057692,0.039874,0.15505,-0.16318,-0.11482,-0.11482,<undefined>
S01,super,F04,famous,A,91,1150,TRUE,s001,<undefined>,0.325,0.18787,0.15,-0.19571,0.175,0.55,0.65,-0.20355,-0.32782,0.42929,-0.032843,-0.39926,0.25,-0.19424
S02,super,F04,famous,A,10,771,TRUE,s002,0.325,<undefined>,0.57692,0.14898,-0.2681,0.30769,0.53571,0.30556,-0.33158,-0.32298,0.31786,0.018383,-0.36569,0.34615,-0.25787
S03,super,F04,famous,A,109,767,TRUE,s003,0.18787,0.57692,<undefined>,0.14286,-0.22964,0.26923,0.48267,0.2643,-0.20711,-0.20711,0.32322,-0.046918,-0.18758,0.5,-0.19698
S04,super,F04,famous,A,37,862,TRUE,s004,0.15,0.14898,0.14286,<undefined>,-0.10714,0.39286,0.33981,0.23175,-0.20203,-0.43886,0.5,0.1847,-0.33235,0.44083,-0.36765
S07,super,F04,famous,A,133,886,TRUE,s005,-0.19571,-0.2681,-0.22964,-0.10714,<undefined>,0.24397,-0.28466,-0.25395,0.46429,-0.14284,0.13036,-0.035714,0.33333,-0.36482,-0.42105
S09,super,F04,famous,A,141,753,TRUE,s006,0.175,0.30769,0.26923,0.39286,0.24397,<undefined>,0.37553,0.25953,0.047969,-0.27696,0.53125,0.47654,-0.13807,0.26923,-0.23233
S10,super,F04,famous,A,44,663,TRUE,s007,0.55,0.53571,0.48267,0.33981,-0.28466,0.37553,<undefined>,0.66667,-0.29587,-0.49836,0.54733,0.049021,-0.53709,0.57143,-0.15712
S11,super,F04,famous,A,115,888,TRUE,s008,0.65,0.30556,0.2643,0.23175,-0.25395,0.25953,0.66667,<undefined>,-0.26266,-0.53091,0.51906,0.0055836,-0.48012,0.33333,-0.16989
S12,super,F04,famous,A,86,661,TRUE,s009,-0.20355,-0.33158,-0.20711,-0.20203,0.46429,0.047969,-0.29587,-0.26266,<undefined>,0.22222,-0.025888,0.1847,0.5,-0.43365,-0.13158
S13,super,F04,famous,A,144,895,TRUE,s010,-0.32782,-0.32298,-0.20711,-0.43886,-0.14284,-0.27696,-0.49836,-0.53091,0.22222,<undefined>,-0.35635,-0.059504,0.14842,-0.54044,-0.021026
S14,super,F04,famous,A,42,782,TRUE,s011,0.42929,0.31786,0.32322,0.5,0.13036,0.53125,0.54733,0.51906,-0.025888,-0.35635,<undefined>,0.24556,-0.21247,0.375,-0.30224
S15,super,F04,famous,A,146,866,TRUE,s012,-0.032843,0.018383,-0.046918,0.1847,-0.035714,0.47654,0.049021,0.0055836,0.1847,-0.059504,0.24556,<undefined>,0.05621,-0.046918,0.0045151
S17,super,F04,famous,A,123,1044,TRUE,s013,-0.39926,-0.36569,-0.18758,-0.33235,0.33333,-0.13807,-0.53709,-0.48012,0.5,0.14842,-0.21247,0.05621,<undefined>,-0.54853,-0.41202
S90,super,F04,famous,A,151,792,TRUE,s014,0.25,0.34615,0.5,0.44083,-0.36482,0.26923,0.57143,0.33333,-0.43365,-0.54044,0.375,-0.046918,-0.54853,<undefined>,-0.25864
S91,super,F04,famous,A,7,1131,TRUE,s015,-0.19424,-0.25787,-0.19698,-0.36765,-0.42105,-0.23233,-0.15712,-0.16989,-0.13158,-0.021026,-0.30224,0.0045151,-0.41202,-0.25864,<undefined>
S01,super,F04,famous,B,61,1257,TRUE,s001,<undefined>,0.07988,0.27273,0.18572,-0.068182,-0.033756,0.045455,0.20455,0.22014,-0.011029,-0.060383,0.16299,-0.11427,0.22727,-0.13959
S02,super,F04,famous,B,69,655,TRUE,s002,0.07988,<undefined>,0.35207,0.1,-0.065301,0.67857,0.42857,-0.21006,-0.053777,-0.10553,-0.035714,0.25613,-0.12162,0.33981,0.0055836
S03,super,F04,famous,B,141,855,TRUE,s003,0.27273,0.35207,<undefined>,0.16667,-0.12447,0.27451,0.5,-0.25879,0.0008658,-0.34123,0.07248,0.64286,-0.23165,0.78571,-0.04044
S04,super,F04,famous,B,102,929,TRUE,s004,0.18572,0.1,0.16667,<undefined>,-0.14951,0.066667,0.1,-0.35712,-0.097462,-0.43409,0.0067003,0.23333,-0.2973,0.23333,-0.13331
S07,super,F04,famous,B,127,648,TRUE,s005,-0.068182,-0.065301,-0.12447,-0.14951,<undefined>,-0.12856,-0.061887,0.17647,0.29412,0.027778,-0.23077,-0.061887,-0.28147,-0.061887,-0.19444
S09,super,F04,famous,B,102,718,TRUE,s006,-0.033756,0.67857,0.27451,0.066667,-0.12856,<undefined>,0.54167,-0.27393,-0.17647,-0.18886,-0.076923,0.35478,-0.13514,0.4036,-0.054738
S10,super,F04,famous,B,153,570,TRUE,s007,0.045455,0.42857,0.5,0.1,-0.061887,0.54167,<undefined>,-0.033592,-0.14706,-0.12854,-0.03073,0.59763,-0.22973,0.66667,-0.11506
S11,super,F04,famous,B,96,830,TRUE,s008,0.20455,-0.21006,-0.25879,-0.35712,0.17647,-0.27393,-0.033592,<undefined>,0.35294,0.30556,-0.47059,-0.31762,0,-0.26889,-0.43015
S12,super,F04,famous,B,30,817,TRUE,s009,0.22014,-0.053777,0.0008658,-0.097462,0.29412,-0.17647,-0.14706,0.35294,<undefined>,0.027778,-0.17647,-0.078143,-0.033585,-0.0092267,-0.12936
S13,super,F04,famous,B,104,891,TRUE,s010,-0.011029,-0.10553,-0.34123,-0.43409,0.027778,-0.18886,-0.12854,0.30556,0.027778,<undefined>,0.046841,-0.39679,-0.040541,-0.35076,0.1762
S14,super,F04,famous,B,117,774,TRUE,s011,-0.060383,-0.035714,0.07248,0.0067003,-0.23077,-0.076923,-0.03073,-0.47059,-0.17647,0.046841,<undefined>,0.26376,-0.24516,0.10992,0.25953
S15,super,F04,famous,B,36,712,TRUE,s012,0.16299,0.25613,0.64286,0.23333,-0.061887,0.35478,0.59763,-0.31762,-0.078143,-0.39679,0.26376,<undefined>,-0.25212,0.83333,-0.11506
S17,super,F04,famous,B,5,2050,TRUE,s013,-0.11427,-0.12162,-0.23165,-0.2973,-0.28147,-0.13514,-0.22973,0,-0.033585,-0.040541,-0.24516,-0.25212,<undefined>,-0.23629,-0.12354
S90,super,F04,famous,B,34,778,TRUE,s014,0.22727,0.33981,0.78571,0.23333,-0.061887,0.4036,0.66667,-0.26889,-0.0092267,-0.35076,0.10992,0.83333,-0.23629,<undefined>,-0.049972
S91,super,F04,famous,B,95,1308,TRUE,s015,-0.13959,0.0055836,-0.04044,-0.13331,-0.19444,-0.054738,-0.11506,-0.43015,-0.12936,0.1762,0.25953,-0.11506,-0.12354,-0.049972,<undefined>
S01,super,F04,famous,C,30,777,TRUE,s001,<undefined>,0.45127,0.77778,0.45,-0.019607,0.64286,0.71875,0.76316,-0.10948,-0.19861,0.73529,0.46875,0.035714,0.34,0.022575
S02,super,F04,famous,C,136,804,TRUE,s002,0.45127,<undefined>,0.56985,0.125,0.10842,0.27416,0.41176,0.35565,-0.031726,-0.23363,0.69161,0.41176,0.074492,0.27029,0
S03,super,F04,famous,C,64,1055,TRUE,s003,0.77778,0.56985,<undefined>,0.4,0.028595,0.64286,0.58333,0.76316,-0.19757,-0.24976,0.86111,0.47222,0.027049,0.5,0.097008
S04,super,F04,famous,C,75,1170,TRUE,s004,0.45,0.125,0.4,<undefined>,-0.14497,0.48028,0.375,0.525,-0.34497,-0.12073,0.325,0.30429,-0.17857,0.26,-0.1114
S07,super,F04,famous,C,17,898,TRUE,s005,-0.019607,0.10842,0.028595,-0.14497,<undefined>,-0.13399,0.084735,-0.095458,-0.4119,-0.048387,0.084055,0.18575,0,-0.062843,0.3203
S09,super,F04,famous,C,43,1180,TRUE,s006,0.64286,0.27416,0.64286,0.48028,-0.13399,<undefined>,0.42857,0.85714,-0.15709,-0.15251,0.52381,0.2381,0.071954,0.48,-0.014938
S10,super,F04,famous,C,60,610,TRUE,s007,0.71875,0.41176,0.58333,0.375,0.084735,0.42857,<undefined>,0.52632,-0.12377,-0.20691,0.64706,0.69231,-0.017857,0.28,0.0090302
S11,super,F04,famous,C,146,915,TRUE,s008,0.76316,0.35565,0.76316,0.525,-0.095458,0.85714,0.52632,<undefined>,-0.121,-0.19031,0.63158,0.31579,0.074492,0.4,0.036121
S12,super,F04,famous,C,89,864,TRUE,s009,-0.10948,-0.031726,-0.19757,-0.34497,-0.4119,-0.15709,-0.12377,-0.121,<undefined>,0.14516,-0.23488,-0.18886,0.17857,-0.32912,-0.37668
S13,super,F04,famous,C,78,1585,TRUE,s010,-0.19861,-0.23363,-0.24976,-0.12073,-0.048387,-0.15251,-0.20691,-0.19031,0.14516,<undefined>,-0.27143,-0.25806,0.27419,-0.23593,-0.04562
S14,super,F04,famous,C,50,827,TRUE,s011,0.73529,0.69161,0.86111,0.325,0.084055,0.52381,0.64706,0.63158,-0.23488,-0.27143,<undefined>,0.52941,0.059699,0.48,0.11429
S15,super,F04,famous,C,75,785,TRUE,s012,0.46875,0.41176,0.47222,0.30429,0.18575,0.2381,0.69231,0.31579,-0.18886,-0.25806,0.52941,<undefined>,-0.089286,0.28,0.0090302
S17,super,F04,famous,C,145,1573,TRUE,s013,0.035714,0.074492,0.027049,-0.17857,0,0.071954,-0.017857,0.074492,0.17857,0.27419,0.059699,-0.089286,<undefined>,-0.0081401,-0.083158
S90,super,F04,famous,C,70,1238,TRUE,s014,0.34,0.27029,0.5,0.26,-0.062843,0.48,0.28,0.4,-0.32912,-0.23593,0.48,0.28,-0.0081401,<undefined>,-0.042843
S91,super,F04,famous,C,14,1189,TRUE,s015,0.022575,0,0.097008,-0.1114,0.3203,-0.014938,0.0090302,0.036121,-0.37668,-0.04562,0.11429,0.0090302,-0.083158,-0.042843,<undefined>
S01,super,F04,famous,D,148,1199,TRUE,s001,<undefined>,0.375,0.20833,0.059539,-0.22498,0.3125,0.3125,-0.093443,0.090482,-0.095791,0.26072,0.3125,-0.375,0.25,0.7
S02,super,F04,famous,D,157,678,TRUE,s002,0.375,<undefined>,0.71429,0.2748,-0.24282,0.89286,0.89286,0.099112,0.51226,-0.060848,0.55882,0.89286,-0.28571,0.78571,0.34
S03,super,F04,famous,D,93,842,TRUE,s003,0.20833,0.71429,<undefined>,0.4269,-0.33158,0.67857,0.67857,-0.125,0.42857,-0.16272,0.32353,0.67857,-0.28571,0.64286,0.18
S04,super,F04,famous,D,57,1073,TRUE,s004,0.059539,0.2748,0.4269,<undefined>,0.10337,0.26975,0.26975,-0.029412,0.14706,-0.177,0.41176,0.26975,-0.32353,0.26471,0.053726
S07,super,F04,famous,D,39,889,TRUE,s005,-0.22498,-0.24282,-0.33158,0.10337,<undefined>,-0.22304,-0.22304,-0.020527,-0.2879,-0.25341,0.034458,-0.22304,-0.42308,-0.22964,-0.33941
S09,super,F04,famous,D,16,761,TRUE,s006,0.3125,0.89286,0.67857,0.26975,-0.22304,<undefined>,1,0.09375,0.59012,-0.064577,0.52941,1,-0.26923,0.88462,0.28
S10,super,F04,famous,D,144,629,TRUE,s007,0.3125,0.89286,0.67857,0.26975,-0.22304,1,<undefined>,0.09375,0.59012,-0.064577,0.52941,1,-0.26923,0.88462,0.28
S11,super,F04,famous,D,121,798,TRUE,s008,-0.093443,0.099112,-0.125,-0.029412,-0.020527,0.09375,0.09375,<undefined>,0.125,0.090686,0.18152,0.09375,-0.3125,0.0625,-0.10971
S12,super,F04,famous,D,92,682,TRUE,s009,0.090482,0.51226,0.42857,0.14706,-0.2879,0.59012,0.59012,0.125,<undefined>,-0.075767,0.29916,0.59012,-0.25,0.68096,0.066863
S13,super,F04,famous,D,102,1126,TRUE,s010,-0.095791,-0.060848,-0.16272,-0.177,-0.25341,-0.064577,-0.064577,0.090686,-0.075767,<undefined>,-0.046568,-0.064577,-0.36957,-0.068307,-0.11196
S14,super,F04,famous,D,46,805,TRUE,s011,0.26072,0.55882,0.32353,0.41176,0.034458,0.52941,0.52941,0.18152,0.29916,-0.046568,<undefined>,0.52941,-0.32353,0.5,0.24686
S15,super,F04,famous,D,67,820,TRUE,s012,0.3125,0.89286,0.67857,0.26975,-0.22304,1,1,0.09375,0.59012,-0.064577,0.52941,<undefined>,-0.26923,0.88462,0.28
S17,super,F04,famous,D,15,1385,TRUE,s013,-0.375,-0.28571,-0.28571,-0.32353,-0.42308,-0.26923,-0.26923,-0.3125,-0.25,-0.36957,-0.32353,-0.26923,<undefined>,-0.25,-0.38
S90,super,F04,famous,D,22,900,TRUE,s014,0.25,0.78571,0.64286,0.26471,-0.22964,0.88462,0.88462,0.0625,0.68096,-0.068307,0.5,0.88462,-0.25,<undefined>,0.22
S91,super,F04,famous,D,74,1216,TRUE,s015,0.7,0.34,0.18,0.053726,-0.33941,0.28,0.28,-0.10971,0.066863,-0.11196,0.24686,0.28,-0.38,0.22,<undefined>
S01,super,F05,famous,A,33,837,TRUE,s001,<undefined>,0.575,0.47059,0.39365,0.073962,0.36303,0.47619,0.32692,-0.26889,-0.26403,0.70588,0.015139,-0.27276,0.61765,0.16071
S02,super,F05,famous,A,23,1106,TRUE,s002,0.575,<undefined>,0.425,0.63787,0.05,0.42145,0.59524,0.52253,-0.13284,-0.298,0.625,-0.062132,-0.16526,0.47929,0.28571
S03,super,F05,famous,A,123,853,TRUE,s003,0.47059,0.425,<undefined>,0.36111,0.16697,0.50505,0.57143,0.21154,-0.026633,-0.25566,0.73333,0.23333,-0.16935,0.7,0.30357
S04,super,F05,famous,A,18,1115,TRUE,s004,0.39365,0.63787,0.36111,<undefined>,0.11111,0.4262,0.32586,0.24397,0.14365,-0.30392,0.5143,-0.01348,0.05649,0.47699,0.11327
S07,super,F05,famous,A,78,1009,TRUE,s005,0.073962,0.05,0.16697,0.11111,<undefined>,0.06387,0.012255,-0.20824,0.375,-0.28127,-0.083027,-0.1875,0.11905,-0.088388,-0.10102
S09,super,F05,famous,A,130,1046,TRUE,s006,0.36303,0.42145,0.50505,0.4262,0.06387,<undefined>,0.32178,0.13188,-0.029412,-0.063049,0.40758,0.049597,-0.034663,0.36808,0.13113
S10,super,F05,famous,A,11,1041,TRUE,s007,0.47619,0.59524,0.57143,0.32586,0.012255,0.32178,<undefined>,0.5033,-0.16188,-0.18915,0.57143,0.02381,-0.077496,0.45238,0.52398
S11,super,F05,famous,A,40,1261,TRUE,s008,0.32692,0.52253,0.21154,0.24397,-0.20824,0.13188,0.5033,<undefined>,-0.34889,-0.30882,0.36538,-0.16318,-0.36699,0.2533,0.32502
S12,super,F05,famous,A,129,607,TRUE,s009,-0.26889,-0.13284,-0.026633,0.14365,0.375,-0.029412,-0.16188,-0.34889,<undefined>,-0.15517,-0.2933,-0.25592,0.30952,-0.27854,-0.23162
S13,super,F05,famous,A,41,1442,TRUE,s010,-0.26403,-0.298,-0.25566,-0.30392,-0.28127,-0.063049,-0.18915,-0.30882,-0.15517,<undefined>,-0.3128,-0.23842,0.17241,-0.26699,-0.097024
S14,super,F05,famous,A,104,714,TRUE,s011,0.70588,0.625,0.73333,0.5143,-0.083027,0.40758,0.57143,0.36538,-0.2933,-0.3128,<undefined>,0.083824,-0.35983,0.80572,0.26786
S15,super,F05,famous,A,104,771,TRUE,s012,0.015139,-0.062132,0.23333,-0.01348,-0.1875,0.049597,0.02381,-0.16318,-0.25592,-0.23842,0.083824,<undefined>,-0.23739,0.22654,-0.10714
S17,super,F05,famous,A,4,1229,TRUE,s013,-0.27276,-0.16526,-0.16935,0.05649,0.11905,-0.034663,-0.077496,-0.36699,0.30952,0.17241,-0.35983,-0.23739,<undefined>,-0.36391,-0.0056019
S90,super,F05,famous,A,82,900,TRUE,s014,0.61765,0.47929,0.7,0.47699,-0.088388,0.36808,0.45238,0.2533,-0.27854,-0.26699,0.80572,0.22654,-0.36391,<undefined>,0.21429
S91,super,F05,famous,A,119,1458,TRUE,s015,0.16071,0.28571,0.30357,0.11327,-0.10102,0.13113,0.52398,0.32502,-0.23162,-0.097024,0.26786,-0.10714,-0.0056019,0.21429,<undefined>
S01,super,F05,famous,B,62,1394,TRUE,s001,<undefined>,0.28,0.36343,0.02,0.06,0.3,0.18343,0.26343,0.22,-0.14627,0.14,0.16343,0.00058875,0.1,0.010294
S02,super,F05,famous,B,115,715,TRUE,s002,0.28,<undefined>,0.60447,0.083824,-0.11618,0.71144,0.41144,0.16,0.46431,-0.20556,0.41716,0.7,-0.066022,0.5,-0.097018
S03,super,F05,famous,B,85,933,TRUE,s003,0.36343,0.60447,<undefined>,0.4375,0.125,0.33395,0.15625,0.1,0.625,-0.068307,0.1875,0.41161,0.042893,0.1875,-0.017259
S04,super,F05,famous,B,34,869,TRUE,s004,0.02,0.083824,0.4375,<undefined>,-0.14286,-0.17752,-0.35523,-0.22,0.25,-0.28261,-0.3153,-0.08876,-0.1875,-0.14286,-0.30893
S07,super,F05,famous,B,130,981,TRUE,s005,0.06,-0.11618,0.125,-0.14286,<undefined>,-0.10609,-0.088562,0.06,0.125,0.090686,-0.059173,-0.16019,0.25,-0.046918,0.29167
S09,super,F05,famous,B,119,920,TRUE,s006,0.3,0.71144,0.33395,-0.17752,-0.10609,<undefined>,0.52288,0.22,0.19378,-0.39375,0.52451,0.6847,-0.33655,0.57143,-0.20833
S10,super,F05,famous,B,25,705,TRUE,s007,0.18343,0.41144,0.15625,-0.35523,-0.088562,0.52288,<undefined>,0.023431,0.14108,-0.21302,0.83333,0.47239,-0.014245,0.36667,-0.24643
S11,super,F05,famous,B,92,1351,TRUE,s008,0.26343,0.16,0.1,-0.22,0.06,0.22,0.023431,<undefined>,0.1,-0.15598,0.02,0.14,-0.22971,0.14,0.21716
S12,super,F05,famous,B,36,797,TRUE,s009,0.22,0.46431,0.625,0.25,0.125,0.19378,0.14108,0.1,<undefined>,0.080137,0.073223,0.27145,0.0062816,0.073223,0.024408
S13,super,F05,famous,B,65,1146,TRUE,s010,-0.14627,-0.20556,-0.068307,-0.28261,0.090686,-0.39375,-0.21302,-0.15598,0.080137,<undefined>,-0.18382,-0.33973,0.047208,-0.47762,0.12857
S14,super,F05,famous,B,136,676,TRUE,s011,0.14,0.41716,0.1875,-0.3153,-0.059173,0.52451,0.83333,0.02,0.073223,-0.18382,<undefined>,0.51226,0.042893,0.35714,-0.25
S15,super,F05,famous,B,143,864,TRUE,s012,0.16343,0.7,0.41161,-0.08876,-0.16019,0.6847,0.47239,0.14,0.27145,-0.33973,0.51226,<undefined>,-0.25888,0.66667,-0.22559
S17,super,F05,famous,B,147,1077,TRUE,s013,0.00058875,-0.066022,0.042893,-0.1875,0.25,-0.33655,-0.014245,-0.22971,0.0062816,0.047208,0.042893,-0.25888,<undefined>,-0.45711,0.083333
S90,super,F05,famous,B,43,758,TRUE,s014,0.1,0.5,0.1875,-0.14286,-0.046918,0.57143,0.36667,0.14,0.073223,-0.47762,0.35714,0.66667,-0.45711,<undefined>,-0.125
S91,super,F05,famous,B,127,1309,TRUE,s015,0.010294,-0.097018,-0.017259,-0.30893,0.29167,-0.20833,-0.24643,0.21716,0.024408,0.12857,-0.25,-0.22559,0.083333,-0.125,<undefined>
S01,super,F05,famous,C,57,1291,TRUE,s001,<undefined>,0.14121,0.086822,0.13043,-0.21323,0.59615,0.34615,<undefined>,0.10275,<undefined>,0.36538,0.38791,<undefined>,0.32089,<undefined>
S02,super,F05,famous,C,58,874,TRUE,s002,0.14121,<undefined>,0.66667,-0.16304,-0.077031,0.34662,0.36111,<undefined>,0.4,<undefined>,0.16686,0.43478,<undefined>,0.10417,<undefined>
S03,super,F05,famous,C,86,822,TRUE,s003,0.086822,0.66667,<undefined>,-0.19379,-0.077031,0.30302,0.34763,<undefined>,0.33333,<undefined>,0.11029,0.34783,<undefined>,0.086908,<undefined>
S04,super,F05,famous,C,30,2496,TRUE,s004,0.13043,-0.16304,-0.19379,<undefined>,-0.018009,-0.032609,-0.021739,<undefined>,-0.097826,<undefined>,0.15404,-0.16304,<undefined>,0.1087,<undefined>
S07,super,F05,famous,C,119,1623,TRUE,s005,-0.21323,-0.077031,-0.077031,-0.018009,<undefined>,-0.18058,-0.15406,<undefined>,-0.01173,<undefined>,0.10767,-0.029061,<undefined>,-0.073967,<undefined>
S09,super,F05,famous,C,157,1058,TRUE,s006,0.59615,0.34662,0.30302,-0.032609,-0.18058,<undefined>,0.44737,<undefined>,0.29399,<undefined>,0.28,0.3733,<undefined>,0.26787,<undefined>
S10,super,F05,famous,C,100,898,TRUE,s007,0.34615,0.36111,0.34763,-0.021739,-0.15406,0.44737,<undefined>,<undefined>,0.30556,<undefined>,0.33029,0.32609,<undefined>,0.45833,<undefined>
S11,super,F05,famous,C,31,2833,FALSE,s008,<undefined>,<undefined>,<undefined>,<undefined>,<undefined>,<undefined>,<undefined>,<undefined>,<undefined>,<undefined>,<undefined>,<undefined>,<undefined>,<undefined>,<undefined>
S12,super,F05,famous,C,110,739,TRUE,s009,0.10275,0.4,0.33333,-0.097826,-0.01173,0.29399,0.30556,<undefined>,<undefined>,<undefined>,0.24,0.19938,<undefined>,0.15298,<undefined>
S13,super,F05,famous,C,43,2539,FALSE,s010,<undefined>,<undefined>,<undefined>,<undefined>,<undefined>,<undefined>,<undefined>,<undefined>,<undefined>,<undefined>,<undefined>,<undefined>,<undefined>,<undefined>,<undefined>
S14,super,F05,famous,C,4,1231,TRUE,s011,0.36538,0.16686,0.11029,0.15404,0.10767,0.28,0.33029,<undefined>,0.24,<undefined>,<undefined>,0.24,<undefined>,0.31373,<undefined>
S15,super,F05,famous,C,25,1337,TRUE,s012,0.38791,0.43478,0.34783,-0.16304,-0.029061,0.3733,0.32609,<undefined>,0.19938,<undefined>,0.24,<undefined>,<undefined>,0.1875,<undefined>
S17,super,F05,famous,C,38,NaN,<undefined>,s013,<undefined>,<undefined>,<undefined>,<undefined>,<undefined>,<undefined>,<undefined>,<undefined>,<undefined>,<undefined>,<undefined>,<undefined>,<undefined>,<undefined>,<undefined>
S90,super,F05,famous,C,21,1536,TRUE,s014,0.32089,0.10417,0.086908,0.1087,-0.073967,0.26787,0.45833,<undefined>,0.15298,<undefined>,0.31373,0.1875,<undefined>,<undefined>,<undefined>
S91,super,F05,famous,C,18,1433,FALSE,s015,<undefined>,<undefined>,<undefined>,<undefined>,<undefined>,<undefined>,<undefined>,<undefined>,<undefined>,<undefined>,<undefined>,<undefined>,<undefined>,<undefined>,<undefined>
S01,super,F05,famous,D,88,1480,TRUE,s001,<undefined>,0.089165,0.38227,-0.060091,-0.11182,0.37931,0.2069,0.25282,-0.22363,-0.18323,0.086207,0.086207,0.029582,0.13793,-0.21031
S02,super,F05,famous,D,144,629,TRUE,s002,0.089165,<undefined>,0.25,0.57756,0.093282,0.37745,0.61144,0.030303,0.22288,-0.2402,0.73077,0.60714,-0.21255,0.33333,-0.14801
S03,super,F05,famous,D,34,1214,TRUE,s003,0.38227,0.25,<undefined>,0.15196,0.057153,0.43182,0.38636,0.17187,-0.052584,-0.10421,0.27273,0.28053,0.047452,0.34091,-0.15713
S04,super,F05,famous,D,29,894,TRUE,s004,-0.060091,0.57756,0.15196,<undefined>,-0.019319,0.14964,0.32288,0.0025996,0.3,-0.31109,0.33981,0.59594,-0.10284,0.40572,-0.13889
S07,super,F05,famous,D,12,1066,TRUE,s005,-0.11182,0.093282,0.057153,-0.019319,<undefined>,0.16692,0.17229,-0.14847,0.23529,0.24392,0.12269,0.06387,0.16,-0.11765,-0.025395
S09,super,F05,famous,D,8,1053,TRUE,s006,0.37931,0.37745,0.43182,0.14964,0.16692,<undefined>,0.60978,0.14936,-0.099973,0.084151,0.39474,0.44737,-0.019411,0.26316,-0.027369
S10,super,F05,famous,D,38,728,TRUE,s007,0.2069,0.61144,0.38636,0.32288,0.17229,0.60978,<undefined>,0.18182,0.045753,-0.19045,0.63333,0.7,-0.18627,0.53333,-0.22181
S11,super,F05,famous,D,106,1781,TRUE,s008,0.25282,0.030303,0.17187,0.0025996,-0.14847,0.14936,0.18182,<undefined>,-0.21427,-0.26879,0.015152,0.13636,-0.21427,0.090909,-0.24203
S12,super,F05,famous,D,38,722,TRUE,s009,-0.22363,0.22288,-0.052584,0.3,0.23529,-0.099973,0.045753,-0.21427,<undefined>,-0.039669,-0.010457,-0.077124,0.18343,-0.22761,0.013889
S13,super,F05,famous,D,150,1312,TRUE,s010,-0.18323,-0.2402,-0.10421,-0.31109,0.24392,0.084151,-0.19045,-0.26879,-0.039669,<undefined>,-0.18464,-0.25871,0.25926,-0.34232,0.088508
S14,super,F05,famous,D,153,748,TRUE,s011,0.086207,0.73077,0.27273,0.33981,0.12269,0.39474,0.63333,0.015152,-0.010457,-0.18464,<undefined>,0.6847,-0.21314,0.40572,-0.21746
S15,super,F05,famous,D,103,888,TRUE,s012,0.086207,0.60714,0.28053,0.59594,0.06387,0.44737,0.7,0.13636,-0.077124,-0.25871,0.6847,<undefined>,-0.19657,0.7,-0.27301
S17,super,F05,famous,D,88,1448,TRUE,s013,0.029582,-0.21255,0.047452,-0.10284,0.16,-0.019411,-0.18627,-0.21427,0.18343,0.25926,-0.21314,-0.19657,<undefined>,-0.096569,-0.009123
S90,super,F05,famous,D,15,966,TRUE,s014,0.13793,0.33333,0.34091,0.40572,-0.11765,0.26316,0.53333,0.090909,-0.22761,-0.34232,0.40572,0.7,-0.096569,<undefined>,-0.32142
S91,super,F05,famous,D,111,1788,TRUE,s015,-0.21031,-0.14801,-0.15713,-0.13889,-0.025395,-0.027369,-0.22181,-0.24203,0.013889,0.088508,-0.21746,-0.27301,-0.009123,-0.32142,<undefined>
S01,super,F06,famous,A,59,951,TRUE,s001,<undefined>,0.11716,<undefined>,-0.0071068,0.16709,0.175,0.4,0.64216,<undefined>,-0.31066,0.36287,-0.075,-0.44864,<undefined>,-0.34424
S02,super,F06,famous,A,66,589,TRUE,s002,0.11716,<undefined>,<undefined>,0.44822,0.065217,0.50715,0.5286,0.14964,<undefined>,-0.12426,0.22607,0.35478,-0.19608,<undefined>,-0.31344
S03,super,F06,famous,A,119,1438,FALSE,s003,<undefined>,<undefined>,<undefined>,<undefined>,<undefined>,<undefined>,<undefined>,<undefined>,<undefined>,<undefined>,<undefined>,<undefined>,<undefined>,<undefined>,<undefined>
S04,super,F06,famous,A,79,941,TRUE,s004,-0.0071068,0.44822,<undefined>,<undefined>,0.2646,0.078585,0.09467,0.31656,<undefined>,-0.0035534,0.010958,0.14108,0.17859,<undefined>,0.059689
S07,super,F06,famous,A,53,1292,TRUE,s005,0.16709,0.065217,<undefined>,0.2646,<undefined>,0,0.065217,0.34783,<undefined>,-0.024829,0.13043,0.17391,0.00063994,<undefined>,0.047848
S09,super,F06,famous,A,66,631,TRUE,s006,0.175,0.50715,<undefined>,0.078585,0,<undefined>,0.625,0.21053,<undefined>,-0.35784,0.29412,0.36364,-0.46491,<undefined>,-0.35712
S10,super,F06,famous,A,79,584,TRUE,s007,0.4,0.5286,<undefined>,0.09467,0.065217,0.625,<undefined>,0.44737,<undefined>,-0.34497,0.55882,0.20833,-0.45321,<undefined>,-0.34198
S11,super,F06,famous,A,111,944,TRUE,s008,0.64216,0.14964,<undefined>,0.31656,0.34783,0.21053,0.44737,<undefined>,<undefined>,-0.20282,0.40828,-0.052632,-0.27529,<undefined>,-0.038312
S12,super,F06,famous,A,59,1454,FALSE,s009,<undefined>,<undefined>,<undefined>,<undefined>,<undefined>,<undefined>,<undefined>,<undefined>,<undefined>,<undefined>,<undefined>,<undefined>,<undefined>,<undefined>,<undefined>
S13,super,F06,famous,A,112,967,TRUE,s010,-0.31066,-0.12426,<undefined>,-0.0035534,-0.024829,-0.35784,-0.34497,-0.20282,<undefined>,<undefined>,-0.13211,-0.29926,0.31818,<undefined>,0.375
S14,super,F06,famous,A,137,955,TRUE,s011,0.36287,0.22607,<undefined>,0.010958,0.13043,0.29412,0.55882,0.40828,<undefined>,-0.13211,<undefined>,0.23529,-0.1123,<undefined>,-0.27393
S15,super,F06,famous,A,14,914,TRUE,s012,-0.075,0.35478,<undefined>,0.14108,0.17391,0.36364,0.20833,-0.052632,<undefined>,-0.29926,0.23529,<undefined>,-0.2266,<undefined>,-0.26384
S17,super,F06,famous,A,1,1244,TRUE,s013,-0.44864,-0.19608,<undefined>,0.17859,0.00063994,-0.46491,-0.45321,-0.27529,<undefined>,0.31818,-0.1123,-0.2266,<undefined>,<undefined>,0.20455
S90,super,F06,famous,A,50,972,FALSE,s014,<undefined>,<undefined>,<undefined>,<undefined>,<undefined>,<undefined>,<undefined>,<undefined>,<undefined>,<undefined>,<undefined>,<undefined>,<undefined>,<undefined>,<undefined>
S91,super,F06,famous,A,147,1021,TRUE,s015,-0.34424,-0.31344,<undefined>,0.059689,0.047848,-0.35712,-0.34198,-0.038312,<undefined>,0.375,-0.27393,-0.26384,0.20455,<undefined>,<undefined>
S01,super,F06,famous,B,26,1060,TRUE,s001,<undefined>,0.475,<undefined>,-0.3,0,0.225,0.125,0.175,<undefined>,-0.11066,0.45,-0.065685,0.45,<undefined>,0.5
S02,super,F06,famous,B,9,715,TRUE,s002,0.475,<undefined>,<undefined>,-0.033333,0.1,0.4,0.26667,0.058824,<undefined>,-0.24069,0.57858,-0.026633,0.31509,<undefined>,0.90625
S03,super,F06,famous,B,14,1245,FALSE,s003,<undefined>,<undefined>,<undefined>,<undefined>,<undefined>,<undefined>,<undefined>,<undefined>,<undefined>,<undefined>,<undefined>,<undefined>,<undefined>,<undefined>,<undefined>
S04,super,F06,famous,B,35,688,TRUE,s004,-0.3,-0.033333,<undefined>,<undefined>,-0.43689,-0.19231,0.34615,-0.44118,<undefined>,-0.5,-0.25,-0.42857,-0.27778,<undefined>,0
S07,super,F06,famous,B,94,753,TRUE,s005,0,0.1,<undefined>,-0.43689,<undefined>,0.19231,-0.22417,0.13279,<undefined>,-0.26213,0.036612,-0.14286,0.16667,<undefined>,0.0625
S09,super,F06,famous,B,151,788,TRUE,s006,0.225,0.4,<undefined>,-0.19231,0.19231,<undefined>,0.076923,0.47059,<undefined>,-0.057843,0.40625,0.23267,0.14842,<undefined>,0.34375
S10,super,F06,famous,B,97,640,TRUE,s007,0.125,0.26667,<undefined>,0.34615,-0.22417,0.076923,<undefined>,-0.23529,<undefined>,-0.36642,0.15625,-0.20816,0.03731,<undefined>,0.21875
S11,super,F06,famous,B,50,829,TRUE,s008,0.175,0.058824,<undefined>,-0.44118,0.13279,0.47059,-0.23529,<undefined>,<undefined>,0.10429,0.088235,0.20588,0.033361,<undefined>,0.029412
S12,super,F06,famous,B,60,864,FALSE,s009,<undefined>,<undefined>,<undefined>,<undefined>,<undefined>,<undefined>,<undefined>,<undefined>,<undefined>,<undefined>,<undefined>,<undefined>,<undefined>,<undefined>,<undefined>
S13,super,F06,famous,B,74,977,TRUE,s010,-0.11066,-0.24069,<undefined>,-0.5,-0.26213,-0.057843,-0.36642,0.10429,<undefined>,<undefined>,-0.24497,0.47929,-0.082843,<undefined>,-0.26569
S14,super,F06,famous,B,103,759,TRUE,s011,0.45,0.57858,<undefined>,-0.25,0.036612,0.40625,0.15625,0.088235,<undefined>,-0.24497,<undefined>,-0.03033,0.42143,<undefined>,0.58395
S15,super,F06,famous,B,4,875,TRUE,s012,-0.065685,-0.026633,<undefined>,-0.42857,-0.14286,0.23267,-0.20816,0.20588,<undefined>,0.47929,-0.03033,<undefined>,0.019064,<undefined>,-0.056218
S17,super,F06,famous,B,77,1088,TRUE,s013,0.45,0.31509,<undefined>,-0.27778,0.16667,0.14842,0.03731,0.033361,<undefined>,-0.082843,0.42143,0.019064,<undefined>,<undefined>,0.28731
S90,super,F06,famous,B,31,1073,FALSE,s014,<undefined>,<undefined>,<undefined>,<undefined>,<undefined>,<undefined>,<undefined>,<undefined>,<undefined>,<undefined>,<undefined>,<undefined>,<undefined>,<undefined>,<undefined>
S91,super,F06,famous,B,15,763,TRUE,s015,0.5,0.90625,<undefined>,0,0.0625,0.34375,0.21875,0.029412,<undefined>,-0.26569,0.58395,-0.056218,0.28731,<undefined>,<undefined>
S01,super,F06,famous,C,40,958,TRUE,s001,<undefined>,0.2,<undefined>,-0.045711,0.26716,0.05,0.275,0.35,<undefined>,-0.24556,0.325,0.125,-0.30355,<undefined>,0.28358
S02,super,F06,famous,C,13,1039,TRUE,s002,0.2,<undefined>,<undefined>,0.19444,0.25477,0.22222,0.5143,0.7643,<undefined>,-0.066643,0.61588,0.5143,0.0014719,<undefined>,0.44921
S03,super,F06,famous,C,32,1245,FALSE,s003,<undefined>,<undefined>,<undefined>,<undefined>,<undefined>,<undefined>,<undefined>,<undefined>,<undefined>,<undefined>,<undefined>,<undefined>,<undefined>,<undefined>,<undefined>
S04,super,F06,famous,C,159,1125,TRUE,s004,-0.045711,0.19444,<undefined>,<undefined>,-0.088235,0.13279,0.35294,0.30556,<undefined>,-0.33333,0.11765,0.17647,-0.61997,<undefined>,0.32858
S07,super,F06,famous,C,100,977,TRUE,s005,0.26716,0.25477,<undefined>,-0.088235,<undefined>,0.14286,0.12288,0.019064,<undefined>,-0.071429,0.049597,0.12288,-0.032843,<undefined>,0.073962
S09,super,F06,famous,C,10,735,TRUE,s006,0.05,0.22222,<undefined>,0.13279,0.14286,<undefined>,0.27239,0.14365,<undefined>,-0.015639,0.14706,0.27239,-0.27426,<undefined>,0.20588
S10,super,F06,famous,C,111,727,TRUE,s007,0.275,0.5143,<undefined>,0.35294,0.12288,0.27239,<undefined>,0.75,<undefined>,-0.090452,0.49077,0.6,-0.43566,<undefined>,0.70588
S11,super,F06,famous,C,127,863,TRUE,s008,0.35,0.7643,<undefined>,0.30556,0.019064,0.14365,0.75,<undefined>,<undefined>,-0.16188,0.68096,0.41667,-0.21066,<undefined>,0.58333
S12,super,F06,famous,C,9,772,FALSE,s009,<undefined>,<undefined>,<undefined>,<undefined>,<undefined>,<undefined>,<undefined>,<undefined>,<undefined>,<undefined>,<undefined>,<undefined>,<undefined>,<undefined>,<undefined>
S13,super,F06,famous,C,100,1128,TRUE,s010,-0.24556,-0.066643,<undefined>,-0.33333,-0.071429,-0.015639,-0.090452,-0.16188,<undefined>,<undefined>,-0.098622,-0.090452,0.18301,<undefined>,-0.14624
S14,super,F06,famous,C,13,826,TRUE,s011,0.325,0.61588,<undefined>,0.11765,0.049597,0.14706,0.49077,0.68096,<undefined>,-0.098622,<undefined>,0.3874,-0.0028175,<undefined>,0.36303
S15,super,F06,famous,C,60,919,TRUE,s012,0.125,0.5143,<undefined>,0.17647,0.12288,0.27239,0.6,0.41667,<undefined>,-0.090452,0.3874,<undefined>,-0.43566,<undefined>,0.47059
S17,super,F06,famous,C,42,1166,TRUE,s013,-0.30355,0.0014719,<undefined>,-0.61997,-0.032843,-0.27426,-0.43566,-0.21066,<undefined>,0.18301,-0.0028175,-0.43566,<undefined>,<undefined>,-0.49424
S90,super,F06,famous,C,126,949,FALSE,s014,<undefined>,<undefined>,<undefined>,<undefined>,<undefined>,<undefined>,<undefined>,<undefined>,<undefined>,<undefined>,<undefined>,<undefined>,<undefined>,<undefined>,<undefined>
S91,super,F06,famous,C,142,1035,TRUE,s015,0.28358,0.44921,<undefined>,0.32858,0.073962,0.20588,0.70588,0.58333,<undefined>,-0.14624,0.36303,0.47059,-0.49424,<undefined>,<undefined>
S01,super,F06,famous,D,112,1255,TRUE,s001,<undefined>,0.18182,<undefined>,0.41299,0.38636,0.2539,0.28053,0.68572,<undefined>,-0.28883,0.18182,0.36364,0.27273,<undefined>,-0.26816
S02,super,F06,famous,D,158,577,TRUE,s002,0.18182,<undefined>,<undefined>,0.18421,0.09672,0.57143,0.5,0.28947,<undefined>,-0.35133,0.46548,0.57143,0.4375,<undefined>,-0.16605
S03,super,F06,famous,D,116,1166,FALSE,s003,<undefined>,<undefined>,<undefined>,<undefined>,<undefined>,<undefined>,<undefined>,<undefined>,<undefined>,<undefined>,<undefined>,<undefined>,<undefined>,<undefined>,<undefined>
S04,super,F06,famous,D,19,1129,TRUE,s004,0.41299,0.18421,<undefined>,<undefined>,0.39925,0.34211,0.23684,0.55715,<undefined>,-0.29151,0.28947,0.32933,0.21504,<undefined>,-0.29321
S07,super,F06,famous,D,141,817,TRUE,s005,0.38636,0.09672,<undefined>,0.39925,<undefined>,0.060225,0.10207,0.37745,<undefined>,-0.26562,0.20551,0.18575,0.19286,<undefined>,-0.30714
S09,super,F06,famous,D,51,840,TRUE,s006,0.2539,0.57143,<undefined>,0.34211,0.060225,<undefined>,0.54184,0.34211,<undefined>,-0.34061,0.6847,0.71429,0.35983,<undefined>,-0.19194
S10,super,F06,famous,D,2,674,TRUE,s007,0.28053,0.5,<undefined>,0.23684,0.10207,0.54184,<undefined>,0.5,<undefined>,-0.25222,0.42857,0.78571,0.29733,<undefined>,0.03217
S11,super,F06,famous,D,94,905,TRUE,s008,0.68572,0.28947,<undefined>,0.55715,0.37745,0.34211,0.5,<undefined>,<undefined>,-0.30446,0.28947,0.55263,0.28947,<undefined>,-0.14809
S12,super,F06,famous,D,112,925,FALSE,s009,<undefined>,<undefined>,<undefined>,<undefined>,<undefined>,<undefined>,<undefined>,<undefined>,<undefined>,<undefined>,<undefined>,<undefined>,<undefined>,<undefined>,<undefined>
S13,super,F06,famous,D,51,1634,TRUE,s010,-0.28883,-0.35133,<undefined>,-0.29151,-0.26562,-0.34061,-0.25222,-0.30446,<undefined>,<undefined>,-0.32767,-0.32008,-0.40089,<undefined>,0.041973
S14,super,F06,famous,D,149,556,TRUE,s011,0.18182,0.46548,<undefined>,0.28947,0.20551,0.6847,0.42857,0.28947,<undefined>,-0.32767,<undefined>,0.47041,0.23483,<undefined>,-0.20267
S15,super,F06,famous,D,46,871,TRUE,s012,0.36364,0.57143,<undefined>,0.32933,0.18575,0.71429,0.78571,0.55263,<undefined>,-0.32008,0.47041,<undefined>,0.375,<undefined>,-0.045495
S17,super,F06,famous,D,73,1013,TRUE,s013,0.27273,0.4375,<undefined>,0.21504,0.19286,0.35983,0.29733,0.28947,<undefined>,-0.40089,0.23483,0.375,<undefined>,<undefined>,-0.36428
S90,super,F06,famous,D,122,826,FALSE,s014,<undefined>,<undefined>,<undefined>,<undefined>,<undefined>,<undefined>,<undefined>,<undefined>,<undefined>,<undefined>,<undefined>,<undefined>,<undefined>,<undefined>,<undefined>
S91,super,F06,famous,D,116,772,TRUE,s015,-0.26816,-0.16605,<undefined>,-0.29321,-0.30714,-0.19194,0.03217,-0.14809,<undefined>,0.041973,-0.20267,-0.045495,-0.36428,<undefined>,<undefined>
S01,super,F07,famous,A,141,1103,TRUE,s001,<undefined>,-0.011029,0.44597,-0.13959,0.12923,-0.011029,0.45455,0.24677,<undefined>,-0.067513,0.32208,0.27273,-0.062843,0.22411,-0.24153
S02,super,F07,famous,A,124,552,TRUE,s002,-0.011029,<undefined>,-0.083227,0.3694,0.23333,0.35714,0.26838,-0.026316,<undefined>,-0.34024,0.32749,0.35714,-0.069706,0,0.079289
S03,super,F07,famous,A,6,1284,TRUE,s003,0.44597,-0.083227,<undefined>,-0.23167,0.025469,-0.15217,0.16709,0.44224,<undefined>,0.36648,0.16336,0.13416,-0.08,0.12768,-0.27824
S04,super,F07,famous,A,43,803,TRUE,s004,-0.13959,0.3694,-0.23167,<undefined>,0.3,0.32756,-0.13568,-0.026316,<undefined>,-0.21947,-0.18365,0,0.28343,0.03125,0.3
S07,super,F07,famous,A,50,981,TRUE,s005,0.12923,0.23333,0.025469,0.3,<undefined>,0.23333,0.13431,-0.10526,<undefined>,-0.041555,0.089543,0.33905,0.04,0.065181,0.033579
S09,super,F07,famous,A,113,809,TRUE,s006,-0.011029,0.35714,-0.15217,0.32756,0.23333,<undefined>,0.26838,-0.39474,<undefined>,-0.36687,0.22041,0.28571,-0.013137,0.03125,0.20858
S10,super,F07,famous,A,91,698,TRUE,s007,0.45455,0.26838,0.16709,-0.13568,0.13431,0.26838,<undefined>,-0.051857,<undefined>,-0.25256,0.79184,0.61327,-0.30284,0.03125,-0.27426
S11,super,F07,famous,A,28,905,TRUE,s008,0.24677,-0.026316,0.44224,-0.026316,-0.10526,-0.39474,-0.051857,<undefined>,<undefined>,0.0038994,-0.087203,-0.069917,0.04,0.16965,-0.35784
S12,super,F07,famous,A,135,2187,FALSE,s009,<undefined>,<undefined>,<undefined>,<undefined>,<undefined>,<undefined>,<undefined>,<undefined>,<undefined>,<undefined>,<undefined>,<undefined>,<undefined>,<undefined>,<undefined>
S13,super,F07,famous,A,123,1080,TRUE,s010,-0.067513,-0.34024,0.36648,-0.21947,-0.041555,-0.36687,-0.25256,0.0038994,<undefined>,<undefined>,-0.19218,-0.24933,0.06,-0.18972,-0.056484
S14,super,F07,famous,A,138,648,TRUE,s011,0.32208,0.32749,0.16336,-0.18365,0.089543,0.22041,0.79184,-0.087203,<undefined>,-0.19218,<undefined>,0.53571,-0.32971,-0.015625,-0.30784
S15,super,F07,famous,A,18,965,TRUE,s012,0.27273,0.35714,0.13416,0,0.33905,0.28571,0.61327,-0.069917,<undefined>,-0.24933,0.53571,<undefined>,-0.10971,-0.03125,-0.24497
S17,super,F07,famous,A,6,1698,TRUE,s013,-0.062843,-0.069706,-0.08,0.28343,0.04,-0.013137,-0.30284,0.04,<undefined>,0.06,-0.32971,-0.10971,<undefined>,-0.015625,0.1
S90,super,F07,famous,A,140,1739,TRUE,s014,0.22411,0,0.12768,0.03125,0.065181,0.03125,0.03125,0.16965,<undefined>,-0.18972,-0.015625,-0.03125,-0.015625,<undefined>,-0.083027
S91,super,F07,famous,A,132,1144,TRUE,s015,-0.24153,0.079289,-0.27824,0.3,0.033579,0.20858,-0.27426,-0.35784,<undefined>,-0.056484,-0.30784,-0.24497,0.1,-0.083027,<undefined>
S01,super,F07,famous,B,109,999,TRUE,s001,<undefined>,0.175,0.40429,0.3,0.10858,0.17929,0.4,0.42145,<undefined>,0.00063994,0.35,0.28358,0.017157,0.025,-0.036396
S02,super,F07,famous,B,103,780,TRUE,s002,0.175,<undefined>,0.4,0.33368,0.03125,0.19231,0.39286,0.21053,<undefined>,-0.12298,0.34375,0.2121,-0.19839,0.2,-0.41997
S03,super,F07,famous,B,42,870,TRUE,s003,0.40429,0.4,<undefined>,0.00098124,0.46875,0.32288,0.71144,0.68421,<undefined>,-0.14407,0.81786,0.34477,-0.24836,0.35621,-0.37353
S04,super,F07,famous,B,84,894,TRUE,s004,0.3,0.33368,0.00098124,<undefined>,-0.125,-0.14286,-0.046918,-0.10449,<undefined>,-0.23167,-0.03033,0.11432,0.14365,-0.24951,-0.21213
S07,super,F07,famous,B,47,1073,TRUE,s005,0.10858,0.03125,0.46875,-0.125,<undefined>,0.3125,0.375,0.34211,<undefined>,-0.14471,0.375,0.14108,-0.38331,0.41697,-0.27426
S09,super,F07,famous,B,152,735,TRUE,s006,0.17929,0.19231,0.32288,-0.14286,0.3125,<undefined>,0.58368,0.14964,<undefined>,0.090686,0.27145,0.46814,-0.22617,0.1,-0.10355
S10,super,F07,famous,B,67,711,TRUE,s007,0.4,0.39286,0.71144,-0.046918,0.375,0.58368,<undefined>,0.4564,<undefined>,-0.024829,0.63572,0.40511,-0.31822,0.27239,-0.2364
S11,super,F07,famous,B,149,923,TRUE,s008,0.42145,0.21053,0.68421,-0.10449,0.34211,0.14964,0.4564,<undefined>,<undefined>,-0.12915,0.61429,0.16692,-0.24806,0.17596,-0.35637
S12,super,F07,famous,B,13,1012,FALSE,s009,<undefined>,<undefined>,<undefined>,<undefined>,<undefined>,<undefined>,<undefined>,<undefined>,<undefined>,<undefined>,<undefined>,<undefined>,<undefined>,<undefined>,<undefined>
S13,super,F07,famous,B,28,1220,TRUE,s010,0.00063994,-0.12298,-0.14407,-0.23167,-0.14471,0.090686,-0.024829,-0.12915,<undefined>,<undefined>,-0.053388,0,0.14908,-0.036019,0.32609
S14,super,F07,famous,B,129,774,TRUE,s011,0.35,0.34375,0.81786,-0.03033,0.375,0.27145,0.63572,0.61429,<undefined>,-0.053388,<undefined>,0.29197,-0.15155,0.47947,-0.40711
S15,super,F07,famous,B,73,661,TRUE,s012,0.28358,0.2121,0.34477,0.11432,0.14108,0.46814,0.40511,0.16692,<undefined>,0,0.29197,<undefined>,-0.2214,0,-0.15784
S17,super,F07,famous,B,130,1001,TRUE,s013,0.017157,-0.19839,-0.24836,0.14365,-0.38331,-0.22617,-0.31822,-0.24806,<undefined>,0.14908,-0.15155,-0.2214,<undefined>,-0.06427,0.0085786
S90,super,F07,famous,B,42,944,TRUE,s014,0.025,0.2,0.35621,-0.24951,0.41697,0.1,0.27239,0.17596,<undefined>,-0.036019,0.47947,0,-0.06427,<undefined>,-0.26997
S91,super,F07,famous,B,130,969,TRUE,s015,-0.036396,-0.41997,-0.37353,-0.21213,-0.27426,-0.10355,-0.2364,-0.35637,<undefined>,0.32609,-0.40711,-0.15784,0.0085786,-0.26997,<undefined>
S01,super,F07,famous,C,87,1129,TRUE,s001,<undefined>,0.175,0.625,-0.25784,0.20931,0.475,0.25,0.55,<undefined>,-0.069807,0.725,0.475,-0.29069,0.25,0.24216
S02,super,F07,famous,C,89,634,TRUE,s002,0.175,<undefined>,0.4,-0.12745,0.3143,0.64706,0.15625,0.34375,<undefined>,-0.15713,0.29412,0.53846,-0.23235,-0.13321,0.14512
S03,super,F07,famous,C,73,864,TRUE,s003,0.625,0.4,<undefined>,-0.17712,0.3244,0.70588,0.40625,0.78125,<undefined>,-0.085693,0.82353,0.8,-0.22091,0.0625,0.26316
S04,super,F07,famous,C,145,791,TRUE,s004,-0.25784,-0.12745,-0.17712,<undefined>,0.11765,-0.21511,0.25536,-0.1973,<undefined>,-0.2963,-0.19074,-0.12745,-0.4,-0.083211,0.47368
S07,super,F07,famous,C,137,1044,TRUE,s005,0.20931,0.3143,0.3244,0.11765,<undefined>,0.33449,0.14706,0.22607,<undefined>,0.077796,0.35885,0.3143,0,-0.074632,0.31579
S09,super,F07,famous,C,32,971,TRUE,s006,0.475,0.64706,0.70588,-0.21511,0.33449,<undefined>,0.26471,0.61765,<undefined>,-0.14443,0.64706,0.64706,-0.25375,0.016789,0.25039
S10,super,F07,famous,C,110,847,TRUE,s007,0.25,0.15625,0.40625,0.25536,0.14706,0.26471,<undefined>,0.25,<undefined>,-0.27778,0.44118,0.34375,-0.34375,0.025,0.18421
S11,super,F07,famous,C,78,815,TRUE,s008,0.55,0.34375,0.78125,-0.1973,0.22607,0.61765,0.25,<undefined>,<undefined>,-0.036492,0.73529,0.71875,-0.087468,0.025,0.13158
S12,super,F07,famous,C,55,968,FALSE,s009,<undefined>,<undefined>,<undefined>,<undefined>,<undefined>,<undefined>,<undefined>,<undefined>,<undefined>,<undefined>,<undefined>,<undefined>,<undefined>,<undefined>,<undefined>
S13,super,F07,famous,C,83,1337,TRUE,s010,-0.069807,-0.15713,-0.085693,-0.2963,0.077796,-0.14443,-0.27778,-0.036492,<undefined>,<undefined>,-0.10103,-0.092047,0.074074,-0.23854,-0.19417
S14,super,F07,famous,C,131,844,TRUE,s011,0.725,0.29412,0.82353,-0.19074,0.35885,0.64706,0.44118,0.73529,<undefined>,-0.10103,<undefined>,0.64706,-0.22938,0.1125,0.29399
S15,super,F07,famous,C,92,926,TRUE,s012,0.475,0.53846,0.8,-0.12745,0.3143,0.64706,0.34375,0.71875,<undefined>,-0.092047,0.64706,<undefined>,-0.23235,-0.0125,0.21053
S17,super,F07,famous,C,137,854,TRUE,s013,-0.29069,-0.23235,-0.22091,-0.4,0,-0.25375,-0.34375,-0.087468,<undefined>,0.074074,-0.22938,-0.23235,<undefined>,-0.32463,-0.1797
S90,super,F07,famous,C,160,2121,TRUE,s014,0.25,-0.13321,0.0625,-0.083211,-0.074632,0.016789,0.025,0.025,<undefined>,-0.23854,0.1125,-0.0125,-0.32463,<undefined>,0.12714
S91,super,F07,famous,C,154,1078,TRUE,s015,0.24216,0.14512,0.26316,0.47368,0.31579,0.25039,0.18421,0.13158,<undefined>,-0.19417,0.29399,0.21053,-0.1797,0.12714,<undefined>
S01,super,F07,famous,D,14,856,TRUE,s001,<undefined>,0.41667,0.38889,0.27778,0.25,0.33333,0.22222,0.63889,0,-0.013071,0.28731,0.58333,-0.26825,0.36588,-0.37772
S02,super,F07,famous,D,5,705,TRUE,s002,0.41667,<undefined>,0.51144,0.33905,0.26667,0.63333,0.5,0.73333,-0.0875,-0.12439,0.51144,0.66667,-0.38925,0.63333,-0.2598
S03,super,F07,famous,D,157,821,TRUE,s003,0.38889,0.51144,<undefined>,0.58368,0.25,0.51226,0.28571,0.63333,-0.14142,-0.25592,0.44083,0.67857,-0.39461,0.35714,-0.375
S04,super,F07,famous,D,112,709,TRUE,s004,0.27778,0.33905,0.58368,<undefined>,0.038462,0.32741,0.25,0.24477,-0.16036,-0.14522,0.29882,0.35935,-0.22855,0.42857,-0.3125
S07,super,F07,famous,D,115,821,TRUE,s005,0.25,0.26667,0.25,0.038462,<undefined>,0.26923,0.5,0.4,-0.2625,-0.11428,0.26923,0.53846,-0.47319,0.39286,-0.024968
S09,super,F07,famous,D,98,730,TRUE,s006,0.33333,0.63333,0.51226,0.32741,0.26923,<undefined>,0.33333,0.5,-0.05,-0.24285,0.66667,0.65385,-0.36872,0.35714,-0.22855
S10,super,F07,famous,D,158,606,TRUE,s007,0.22222,0.5,0.28571,0.25,0.5,0.33333,<undefined>,0.36667,-0.25,-0.093443,0.33333,0.5,-0.44194,0.71429,-0.10355
S11,super,F07,famous,D,87,750,TRUE,s008,0.63889,0.73333,0.63333,0.24477,0.4,0.5,0.36667,<undefined>,-0.0875,-0.1589,0.44477,0.8,-0.2428,0.56667,-0.29013
S12,super,F07,famous,D,69,1976,TRUE,s009,0,-0.0875,-0.14142,-0.16036,-0.2625,-0.05,-0.25,-0.0875,<undefined>,0.18964,-0.05,-0.1125,0.05,-0.225,-0.225
S13,super,F07,famous,D,42,1152,TRUE,s010,-0.013071,-0.12439,-0.25592,-0.14522,-0.11428,-0.24285,-0.093443,-0.1589,0.18964,<undefined>,-0.076184,-0.16605,0.21548,-0.086294,-0.034518
S14,super,F07,famous,D,141,723,TRUE,s011,0.28731,0.51144,0.44083,0.29882,0.26923,0.66667,0.33333,0.44477,-0.05,-0.076184,<undefined>,0.59012,-0.11872,0.35714,-0.26961
S15,super,F07,famous,D,62,803,TRUE,s012,0.58333,0.66667,0.67857,0.35935,0.53846,0.65385,0.5,0.8,-0.1125,-0.16605,0.59012,<undefined>,-0.25352,0.60714,-0.30086
S17,super,F07,famous,D,121,1582,TRUE,s013,-0.26825,-0.38925,-0.39461,-0.22855,-0.47319,-0.36872,-0.44194,-0.2428,0.05,0.21548,-0.11872,-0.25352,<undefined>,-0.43122,-0.051777
S90,super,F07,famous,D,152,874,TRUE,s014,0.36588,0.63333,0.35714,0.42857,0.39286,0.35714,0.71429,0.56667,-0.225,-0.086294,0.35714,0.60714,-0.43122,<undefined>,-0.16605
S91,super,F07,famous,D,150,777,TRUE,s015,-0.37772,-0.2598,-0.375,-0.3125,-0.024968,-0.22855,-0.10355,-0.29013,-0.225,-0.034518,-0.26961,-0.30086,-0.051777,-0.16605,<undefined>
S01,super,F08,famous,A,155,1172,TRUE,s001,<undefined>,0.1393,0.32051,0.60936,-0.22498,0.3125,0.5,0.58037,<undefined>,-0.068528,0.069649,-0.11428,-0.18209,0.54167,<undefined>
S02,super,F08,famous,A,131,664,TRUE,s002,0.1393,<undefined>,-0.10659,0.029074,0.17734,0.44477,0.45895,0.19742,<undefined>,0.057157,0.47654,0.28677,-0.25277,0.3524,<undefined>
S03,super,F08,famous,A,76,2142,TRUE,s003,0.32051,-0.10659,<undefined>,0.39964,-0.089366,0,0.11538,0.19231,<undefined>,-0.093765,-0.12821,-0.14505,-0.039906,0.16667,<undefined>
S04,super,F08,famous,A,78,1639,TRUE,s004,0.60936,0.029074,0.39964,<undefined>,-0.15221,0.17241,0.32759,0.3739,<undefined>,-0.1108,-0.014283,-0.02265,-0.096517,0.36207,<undefined>
S07,super,F08,famous,A,147,962,TRUE,s005,-0.22498,0.17734,-0.089366,-0.15221,<undefined>,-0.077277,-0.082323,0.12144,<undefined>,0.32,0.044551,0.15211,-0.039108,-0.13331,<undefined>
S09,super,F08,famous,A,61,853,TRUE,s006,0.3125,0.44477,0,0.17241,-0.077277,<undefined>,0.71875,0.38636,<undefined>,-0.11598,0.38382,0.11716,-0.27451,0.58333,<undefined>
S10,super,F08,famous,A,45,753,TRUE,s007,0.5,0.45895,0.11538,0.32759,-0.082323,0.71875,<undefined>,0.59091,<undefined>,-0.09598,0.35447,0.078585,-0.19437,0.83333,<undefined>
S11,super,F08,famous,A,89,1086,TRUE,s008,0.58037,0.19742,0.19231,0.3739,0.12144,0.38636,0.59091,<undefined>,<undefined>,0.20745,0.12144,0.049354,0.13544,0.59091,<undefined>
S12,super,F08,famous,A,62,1228,FALSE,s009,<undefined>,<undefined>,<undefined>,<undefined>,<undefined>,<undefined>,<undefined>,<undefined>,<undefined>,<undefined>,<undefined>,<undefined>,<undefined>,<undefined>,<undefined>
S13,super,F08,famous,A,155,1243,TRUE,s010,-0.068528,0.057157,-0.093765,-0.1108,0.32,-0.11598,-0.09598,0.20745,<undefined>,<undefined>,0.12686,-0.17657,0.11716,-0.13598,<undefined>
S14,super,F08,famous,A,79,624,TRUE,s011,0.069649,0.47654,-0.12821,-0.014283,0.044551,0.38382,0.35447,0.12144,<undefined>,0.12686,<undefined>,0.35275,-0.15899,0.25953,<undefined>
S15,super,F08,famous,A,160,778,TRUE,s012,-0.11428,0.28677,-0.14505,-0.02265,0.15211,0.11716,0.078585,0.049354,<undefined>,-0.17657,0.35275,<undefined>,-0.097506,0.014298,<undefined>
S17,super,F08,famous,A,48,1110,TRUE,s013,-0.18209,-0.25277,-0.039906,-0.096517,-0.039108,-0.27451,-0.19437,0.13544,<undefined>,0.11716,-0.15899,-0.097506,<undefined>,-0.23785,<undefined>
S90,super,F08,famous,A,36,1128,TRUE,s014,0.54167,0.3524,0.16667,0.36207,-0.13331,0.58333,0.83333,0.59091,<undefined>,-0.13598,0.25953,0.014298,-0.23785,<undefined>,<undefined>
S91,super,F08,famous,A,76,2109,FALSE,s015,<undefined>,<undefined>,<undefined>,<undefined>,<undefined>,<undefined>,<undefined>,<undefined>,<undefined>,<undefined>,<undefined>,<undefined>,<undefined>,<undefined>,<undefined>
S01,super,F08,famous,B,156,1002,TRUE,s001,<undefined>,<undefined>,0.72654,0.45238,0.30826,0.88636,0.42857,0.82609,-0.16878,<undefined>,0.44083,0.19947,0.087769,0.45161,<undefined>
S02,super,F08,famous,B,78,877,FALSE,s002,<undefined>,<undefined>,<undefined>,<undefined>,<undefined>,<undefined>,<undefined>,<undefined>,<undefined>,<undefined>,<undefined>,<undefined>,<undefined>,<undefined>,<undefined>
S03,super,F08,famous,B,155,1179,TRUE,s003,0.72654,<undefined>,<undefined>,0.35,0.28243,0.67079,0.475,0.61989,0.046793,<undefined>,0.43787,0.33682,0.11716,0.33088,<undefined>
S04,super,F08,famous,B,155,1170,TRUE,s004,0.45238,<undefined>,0.35,<undefined>,0.038462,0.40909,0.325,0.36957,-0.41232,<undefined>,0.22929,-0.038462,-0.17426,0.27419,<undefined>
S07,super,F08,famous,B,3,1415,TRUE,s005,0.30826,<undefined>,0.28243,0.038462,<undefined>,0.33409,0.25,0.33739,0.17364,<undefined>,0.17638,0.59672,-0.025264,0.097249,<undefined>
S09,super,F08,famous,B,14,1204,TRUE,s006,0.88636,<undefined>,0.67079,0.40909,0.33409,<undefined>,0.38636,0.93478,-0.13826,<undefined>,0.35261,0.2253,0.061052,0.5,<undefined>
S10,super,F08,famous,B,145,602,TRUE,s007,0.42857,<undefined>,0.475,0.325,0.25,0.38636,<undefined>,0.34783,-0.17335,<undefined>,0.65625,0.19561,0.025,0.12903,<undefined>
S11,super,F08,famous,B,29,1270,TRUE,s008,0.82609,<undefined>,0.61989,0.36957,0.33739,0.93478,0.34783,<undefined>,-0.15398,<undefined>,0.31554,0.2286,0.036659,0.51613,<undefined>
S12,super,F08,famous,B,107,1081,TRUE,s009,-0.16878,<undefined>,0.046793,-0.41232,0.17364,-0.13826,-0.17335,-0.15398,<undefined>,<undefined>,-0.048685,0.31429,0.026627,-0.28107,<undefined>
S13,super,F08,famous,B,40,2264,FALSE,s010,<undefined>,<undefined>,<undefined>,<undefined>,<undefined>,<undefined>,<undefined>,<undefined>,<undefined>,<undefined>,<undefined>,<undefined>,<undefined>,<undefined>,<undefined>
S14,super,F08,famous,B,74,776,TRUE,s011,0.44083,<undefined>,0.43787,0.22929,0.17638,0.35261,0.65625,0.31554,-0.048685,<undefined>,<undefined>,0.23737,-0.1,0.14516,<undefined>
S15,super,F08,famous,B,9,1411,TRUE,s012,0.19947,<undefined>,0.33682,-0.038462,0.59672,0.2253,0.19561,0.2286,0.31429,<undefined>,0.23737,<undefined>,-0.12472,0.064991,<undefined>
S17,super,F08,famous,B,157,1139,TRUE,s013,0.087769,<undefined>,0.11716,-0.17426,-0.025264,0.061052,0.025,0.036659,0.026627,<undefined>,-0.1,-0.12472,<undefined>,-0.10183,<undefined>
S90,super,F08,famous,B,88,1840,TRUE,s014,0.45161,<undefined>,0.33088,0.27419,0.097249,0.5,0.12903,0.51613,-0.28107,<undefined>,0.14516,0.064991,-0.10183,<undefined>,<undefined>
S91,super,F08,famous,B,31,1231,FALSE,s015,<undefined>,<undefined>,<undefined>,<undefined>,<undefined>,<undefined>,<undefined>,<undefined>,<undefined>,<undefined>,<undefined>,<undefined>,<undefined>,<undefined>,<undefined>
S01,super,F08,famous,C,16,1291,TRUE,s001,<undefined>,0.077489,0,-0.066459,-0.20984,0.30769,0.44231,0.44891,-0.31043,-0.058393,0.2599,0.40385,-0.25,0.080223,-0.019459
S02,super,F08,famous,C,137,809,TRUE,s002,0.077489,<undefined>,0.032609,0.575,0.16374,0.25043,0.065857,0.11975,0.06387,-0.094986,0.23652,0.3143,-0.11765,0.21093,-0.14847
S03,super,F08,famous,C,28,2405,TRUE,s003,0,0.032609,<undefined>,-0.043478,0.047208,-0.043478,0.014599,0.01087,-0.1087,0.047386,-0.048753,0.01087,-0.3587,-0.19006,0.082002
S04,super,F08,famous,C,98,1104,TRUE,s004,-0.066459,0.575,-0.043478,<undefined>,0.07419,0.055025,-0.045928,-0.035364,-0.13284,-0.15639,0.025736,0.021447,-0.175,0.021447,-0.22638
S07,super,F08,famous,C,73,1295,TRUE,s005,-0.20984,0.16374,0.047208,0.07419,<undefined>,-0.27856,-0.23954,-0.15328,0.19231,-0.048117,-0.079656,-0.2846,-0.36538,-0.2302,0.20217
S09,super,F08,famous,C,18,880,TRUE,s006,0.30769,0.25043,-0.043478,0.055025,-0.27856,<undefined>,0.41304,0.5,-0.34727,-0.16667,0.39842,0.73529,-0.035714,0.51838,-0.16362
S10,super,F08,famous,C,5,1119,TRUE,s007,0.44231,0.065857,0.014599,-0.045928,-0.23954,0.41304,<undefined>,0.43478,-0.13725,-0.052632,0.27206,0.43478,-0.13043,0.34783,0.081403
S11,super,F08,famous,C,112,1045,TRUE,s008,0.44891,0.11975,0.01087,-0.035364,-0.15328,0.5,0.43478,<undefined>,-0.16188,-0.042355,0.43266,0.61905,-0.19048,0.17892,0.025996
S12,super,F08,famous,C,145,778,TRUE,s009,-0.31043,0.06387,-0.1087,-0.13284,0.19231,-0.34727,-0.13725,-0.16188,<undefined>,-0.13158,-0.072984,-0.3218,-0.30714,-0.087468,0.075758
S13,super,F08,famous,C,94,2886,TRUE,s010,-0.058393,-0.094986,0.047386,-0.15639,-0.048117,-0.16667,-0.052632,-0.042355,-0.13158,<undefined>,-0.061404,-0.14035,-0.38596,-0.17544,0.090729
S14,super,F08,famous,C,54,854,TRUE,s011,0.2599,0.23652,-0.048753,0.025736,-0.079656,0.39842,0.27206,0.43266,-0.072984,-0.061404,<undefined>,0.34763,-0.13889,0.3381,0.12901
S15,super,F08,famous,C,88,1059,TRUE,s012,0.40385,0.3143,0.01087,0.021447,-0.2846,0.73529,0.43478,0.61905,-0.3218,-0.14035,0.34763,<undefined>,-0.11765,0.33867,-0.19132
S17,super,F08,famous,C,102,1103,TRUE,s013,-0.25,-0.11765,-0.3587,-0.175,-0.36538,-0.035714,-0.13043,-0.19048,-0.30714,-0.38596,-0.13889,-0.11765,<undefined>,0,-0.30303
S90,super,F08,famous,C,131,780,TRUE,s014,0.080223,0.21093,-0.19006,0.021447,-0.2302,0.51838,0.34783,0.17892,-0.087468,-0.17544,0.3381,0.33867,0,<undefined>,-0.025104
S91,super,F08,famous,C,145,1803,TRUE,s015,-0.019459,-0.14847,0.082002,-0.22638,0.20217,-0.16362,0.081403,0.025996,0.075758,0.090729,0.12901,-0.19132,-0.30303,-0.025104,<undefined>
S01,super,F08,famous,D,63,1373,TRUE,s001,<undefined>,<undefined>,0.04902,0.3268,-0.1202,0.25,0.5625,0.75,0.14645,-0.21719,0.2643,0.2643,0.27239,<undefined>,<undefined>
S02,super,F08,famous,D,106,580,FALSE,s002,<undefined>,<undefined>,<undefined>,<undefined>,<undefined>,<undefined>,<undefined>,<undefined>,<undefined>,<undefined>,<undefined>,<undefined>,<undefined>,<undefined>,<undefined>
S03,super,F08,famous,D,90,2669,TRUE,s003,0.04902,<undefined>,<undefined>,0.078431,-0.11092,-0.14706,0,0.088235,-0.029412,0.041475,-0.029412,-0.10784,-0.029412,<undefined>,<undefined>
S04,super,F08,famous,D,88,1338,TRUE,s004,0.3268,<undefined>,0.078431,<undefined>,0.0803,0.38504,0.45647,0.46872,0.25035,-0.039605,0.2619,0.2619,0.10286,<undefined>,<undefined>
S07,super,F08,famous,D,19,1172,TRUE,s005,-0.1202,<undefined>,-0.11092,0.0803,<undefined>,-0.25712,-0.16118,-0.14892,-0.046918,0.074031,-0.11905,0.10411,-0.38807,<undefined>,<undefined>
S09,super,F08,famous,D,37,815,TRUE,s006,0.25,<undefined>,-0.14706,0.38504,-0.25712,<undefined>,0.55882,0.4,0.34911,-0.15519,0.5,0.5,0.16667,<undefined>,<undefined>
S10,super,F08,famous,D,108,817,TRUE,s007,0.5625,<undefined>,0,0.45647,-0.16118,0.55882,<undefined>,0.775,0.41263,-0.17758,0.57901,0.57901,0.25,<undefined>,<undefined>
S11,super,F08,famous,D,140,988,TRUE,s008,0.75,<undefined>,0.088235,0.46872,-0.14892,0.4,0.775,<undefined>,0.27574,-0.17174,0.41716,0.41716,0.3,<undefined>,<undefined>
S12,super,F08,famous,D,111,857,TRUE,s009,0.14645,<undefined>,-0.029412,0.25035,-0.046918,0.34911,0.41263,0.27574,<undefined>,-0.24382,0.69822,0.32322,0.039052,<undefined>,<undefined>
S13,super,F08,famous,D,138,2336,TRUE,s010,-0.21719,<undefined>,0.041475,-0.039605,0.074031,-0.15519,-0.17758,-0.17174,-0.24382,<undefined>,-0.21168,-0.050969,-0.21168,<undefined>,<undefined>
S14,super,F08,famous,D,83,781,TRUE,s011,0.2643,<undefined>,-0.029412,0.2619,-0.11905,0.5,0.57901,0.41716,0.69822,-0.21168,<undefined>,0.5,0.16667,<undefined>,<undefined>
S15,super,F08,famous,D,114,914,TRUE,s012,0.2643,<undefined>,-0.10784,0.2619,0.10411,0.5,0.57901,0.41716,0.32322,-0.050969,0.5,<undefined>,0.072386,<undefined>,<undefined>
S17,super,F08,famous,D,106,2331,TRUE,s013,0.27239,<undefined>,-0.029412,0.10286,-0.38807,0.16667,0.25,0.3,0.039052,-0.21168,0.16667,0.072386,<undefined>,<undefined>,<undefined>
S90,super,F08,famous,D,89,1363,FALSE,s014,<undefined>,<undefined>,<undefined>,<undefined>,<undefined>,<undefined>,<undefined>,<undefined>,<undefined>,<undefined>,<undefined>,<undefined>,<undefined>,<undefined>,<undefined>
S91,super,F08,famous,D,136,1402,FALSE,s015,<undefined>,<undefined>,<undefined>,<undefined>,<undefined>,<undefined>,<undefined>,<undefined>,<undefined>,<undefined>,<undefined>,<undefined>,<undefined>,<undefined>,<undefined>
S01,super,F09,famous,A,99,1110,TRUE,s001,<undefined>,0.28261,0.48945,0.45652,-0.014279,0.43478,0.15217,0.40249,<undefined>,0.13017,0.17082,0.19565,0.16336,0.32609,0.16336
S02,super,F09,famous,A,154,560,TRUE,s002,0.28261,<undefined>,0.25,0.27778,-0.10355,0.7,0.63215,0.18573,<undefined>,-0.018519,0.13158,0.83333,0.32288,0.38165,0.32353
S03,super,F09,famous,A,48,1119,TRUE,s003,0.48945,0.25,<undefined>,0.46716,-0.015685,0.425,0.4,0.65,<undefined>,0.022241,0.15931,0.15,0.325,0.5,0.11287
S04,super,F09,famous,A,111,1011,TRUE,s004,0.45652,0.27778,0.46716,<undefined>,0.24129,0.44921,0.5,0.39842,<undefined>,0.068265,0.16241,0.22222,0.25,0.33333,0.03731
S07,super,F09,famous,A,28,996,TRUE,s005,-0.014279,-0.10355,-0.015685,0.24129,<undefined>,-0.024968,0.083947,-0.082516,<undefined>,-0.079883,-0.30224,-0.10355,-0.1973,-0.12944,-0.043685
S09,super,F09,famous,A,155,887,TRUE,s006,0.43478,0.7,0.425,0.44921,-0.024968,<undefined>,0.56667,0.38017,<undefined>,0.074074,0.11429,0.56667,0.41144,0.51144,0.41176
S10,super,F09,famous,A,123,600,TRUE,s007,0.15217,0.63215,0.4,0.5,0.083947,0.56667,<undefined>,0.33333,<undefined>,-0.055556,0.10978,0.5143,0.5,0.57143,0.088235
S11,super,F09,famous,A,15,871,TRUE,s008,0.40249,0.18573,0.65,0.39842,-0.082516,0.38017,0.33333,<undefined>,<undefined>,0.083606,0.1895,0.074619,0.25,0.61111,0.14447
S12,super,F09,famous,A,2,1237,FALSE,s009,<undefined>,<undefined>,<undefined>,<undefined>,<undefined>,<undefined>,<undefined>,<undefined>,<undefined>,<undefined>,<undefined>,<undefined>,<undefined>,<undefined>,<undefined>
S13,super,F09,famous,A,26,1537,TRUE,s010,0.13017,-0.018519,0.022241,0.068265,-0.079883,0.074074,-0.055556,0.083606,<undefined>,<undefined>,0.09577,-0.018519,-0.14179,-0.055556,0.33333
S14,super,F09,famous,A,3,1043,TRUE,s011,0.17082,0.13158,0.15931,0.16241,-0.30224,0.11429,0.10978,0.1895,<undefined>,0.09577,<undefined>,0.057147,0.16692,0.12784,0.048891
S15,super,F09,famous,A,109,796,TRUE,s012,0.19565,0.83333,0.15,0.22222,-0.10355,0.56667,0.5143,0.074619,<undefined>,-0.018519,0.057147,<undefined>,0.32288,0.2388,0.29916
S17,super,F09,famous,A,101,980,TRUE,s013,0.16336,0.32288,0.325,0.25,-0.1973,0.41144,0.5,0.25,<undefined>,-0.14179,0.16692,0.32288,<undefined>,0.43333,-0.0041805
S90,super,F09,famous,A,38,876,TRUE,s014,0.32609,0.38165,0.5,0.33333,-0.12944,0.51144,0.57143,0.61111,<undefined>,-0.055556,0.12784,0.2388,0.43333,<undefined>,0.015139
S91,super,F09,famous,A,12,977,TRUE,s015,0.16336,0.32353,0.11287,0.03731,-0.043685,0.41176,0.088235,0.14447,<undefined>,0.33333,0.048891,0.29916,-0.0041805,0.015139,<undefined>
S01,super,F09,famous,B,69,1040,TRUE,s001,<undefined>,0.57143,0.48028,0.072129,0.25035,-0.26937,0.61905,-0.14286,<undefined>,-0.14489,0.40476,0.071429,-0.10609,0.33333,0.85714
S02,super,F09,famous,B,4,1119,TRUE,s002,0.57143,<undefined>,0.64512,0.13235,0.31287,-0.2451,0.73684,-0.10526,<undefined>,-0.31835,0.5,0.13158,-0.064627,0.47368,0.42857
S03,super,F09,famous,B,98,868,TRUE,s003,0.48028,0.64512,<undefined>,0.12784,0.30858,-0.11983,0.75,-0.041258,<undefined>,-0.27836,0.5,0.16667,-0.072984,0.36111,0.40476
S04,super,F09,famous,B,117,1145,TRUE,s004,0.072129,0.13235,0.12784,<undefined>,0.58358,0.052632,0.24665,0,<undefined>,-0.16162,0.32933,0.13158,0.35114,0.10526,0.044235
S07,super,F09,famous,B,5,1436,TRUE,s005,0.25035,0.31287,0.30858,0.58358,<undefined>,0.025,0.42145,-0.025,<undefined>,-0.22612,0.3,0.1,0.25,0.225,0.22246
S09,super,F09,famous,B,160,762,TRUE,s006,-0.26937,-0.2451,-0.11983,0.052632,0.025,<undefined>,-0.21511,0.24539,<undefined>,-0.023669,-0.09375,0.32143,0.083333,-0.2813,-0.26937
S10,super,F09,famous,B,13,807,TRUE,s007,0.61905,0.73684,0.75,0.24665,0.42145,-0.21511,<undefined>,0.058824,<undefined>,-0.28081,0.67647,0.20588,0.052425,0.41176,0.57143
S11,super,F09,famous,B,81,811,TRUE,s008,-0.14286,-0.10526,-0.041258,0,-0.025,0.24539,0.058824,<undefined>,<undefined>,-0.011835,0.26471,0.5,0.027778,-0.29412,-0.19048
S12,super,F09,famous,B,10,881,FALSE,s009,<undefined>,<undefined>,<undefined>,<undefined>,<undefined>,<undefined>,<undefined>,<undefined>,<undefined>,<undefined>,<undefined>,<undefined>,<undefined>,<undefined>,<undefined>
S13,super,F09,famous,B,3,1786,TRUE,s010,-0.14489,-0.31835,-0.27836,-0.16162,-0.22612,-0.023669,-0.28081,-0.011835,<undefined>,<undefined>,-0.27143,-0.16898,0.014286,-0.32815,-0.11632
S14,super,F09,famous,B,22,766,TRUE,s011,0.40476,0.5,0.5,0.32933,0.3,-0.09375,0.67647,0.26471,<undefined>,-0.27143,<undefined>,0.5,0.13971,0.40625,0.35714
S15,super,F09,famous,B,66,658,TRUE,s012,0.071429,0.13158,0.16667,0.13158,0.1,0.32143,0.20588,0.5,<undefined>,-0.16898,0.5,<undefined>,0.16667,0.035714,0.071429
S17,super,F09,famous,B,91,1190,TRUE,s013,-0.10609,-0.064627,-0.072984,0.35114,0.25,0.083333,0.052425,0.027778,<undefined>,0.014286,0.13971,0.16667,<undefined>,-0.096813,-0.13399
S90,super,F09,famous,B,68,785,TRUE,s014,0.33333,0.47368,0.36111,0.10526,0.225,-0.2813,0.41176,-0.29412,<undefined>,-0.32815,0.40625,0.035714,-0.096813,<undefined>,0.28571
S91,super,F09,famous,B,50,1146,TRUE,s015,0.85714,0.42857,0.40476,0.044235,0.22246,-0.26937,0.57143,-0.19048,<undefined>,-0.11632,0.35714,0.071429,-0.13399,0.28571,<undefined>
S01,super,F09,famous,C,131,912,TRUE,s001,<undefined>,-0.12551,0.60526,0.30302,-0.35862,0.54438,0.39474,0.92105,<undefined>,-0.33153,0.37745,0.36842,-0.40144,0.37745,0.30753
S02,super,F09,famous,C,107,967,TRUE,s002,-0.12551,<undefined>,-0.013407,0.14792,-0.14706,0.13365,-0.082323,-0.10471,<undefined>,0.15715,0.064736,-0.077277,0.27984,0.064736,0.11851
S03,super,F09,famous,C,49,902,TRUE,s003,0.60526,-0.013407,<undefined>,0.45358,-0.14461,0.73529,0.5625,0.66667,<undefined>,-0.31066,0.59375,0.65625,-0.3218,0.59375,0.53661
S04,super,F09,famous,C,135,844,TRUE,s004,0.30302,0.14792,0.45358,<undefined>,-0.22417,0.39749,0.62198,0.34763,<undefined>,-0.050857,0.58352,0.58352,-0.16047,0.58352,0.46429
S07,super,F09,famous,C,158,818,TRUE,s005,-0.35862,-0.14706,-0.14461,-0.22417,<undefined>,-0.34198,-0.19281,-0.35076,<undefined>,0.0625,-0.29336,-0.21644,0.20588,-0.29336,-0.30812
S09,super,F09,famous,C,107,999,TRUE,s006,0.54438,0.13365,0.73529,0.39749,-0.34198,<undefined>,0.5,0.6024,<undefined>,-0.22434,0.64706,0.50505,-0.34703,0.64706,0.73529
S10,super,F09,famous,C,119,601,TRUE,s007,0.39474,-0.082323,0.5625,0.62198,-0.19281,0.5,<undefined>,0.44444,<undefined>,-0.25888,0.73077,0.73077,-0.35626,0.73077,0.54184
S11,super,F09,famous,C,93,880,TRUE,s008,0.92105,-0.10471,0.66667,0.34763,-0.35076,0.6024,0.44444,<undefined>,<undefined>,-0.32217,0.4262,0.41667,-0.39597,0.4262,0.3524
S12,super,F09,famous,C,8,1258,FALSE,s009,<undefined>,<undefined>,<undefined>,<undefined>,<undefined>,<undefined>,<undefined>,<undefined>,<undefined>,<undefined>,<undefined>,<undefined>,<undefined>,<undefined>,<undefined>
S13,super,F09,famous,C,152,788,TRUE,s010,-0.33153,0.15715,-0.31066,-0.050857,0.0625,-0.22434,-0.25888,-0.32217,<undefined>,<undefined>,-0.29013,-0.34191,0.47563,-0.29013,-0.14461
S14,super,F09,famous,C,110,762,TRUE,s011,0.37745,0.064736,0.59375,0.58352,-0.29336,0.64706,0.73077,0.4262,<undefined>,-0.29013,<undefined>,0.81429,-0.37139,1,0.79184
S15,super,F09,famous,C,98,876,TRUE,s012,0.36842,-0.077277,0.65625,0.58352,-0.21644,0.50505,0.73077,0.41667,<undefined>,-0.34191,0.81429,<undefined>,-0.38567,0.81429,0.6194
S17,super,F09,famous,C,134,1004,TRUE,s013,-0.40144,0.27984,-0.3218,-0.16047,0.20588,-0.34703,-0.35626,-0.39597,<undefined>,0.47563,-0.37139,-0.38567,<undefined>,-0.37139,-0.25879
S90,super,F09,famous,C,135,755,TRUE,s014,0.37745,0.064736,0.59375,0.58352,-0.29336,0.64706,0.73077,0.4262,<undefined>,-0.29013,1,0.81429,-0.37139,<undefined>,0.79184
S91,super,F09,famous,C,77,888,TRUE,s015,0.30753,0.11851,0.53661,0.46429,-0.30812,0.73529,0.54184,0.3524,<undefined>,-0.14461,0.79184,0.6194,-0.25879,0.79184,<undefined>
S01,super,F09,famous,D,17,902,TRUE,s001,<undefined>,0.13158,0.48,0.23684,0.13609,-0.055597,0.52632,0.00066903,<undefined>,0.027452,0.52632,0.44737,-0.32853,0.10526,-0.14349
S02,super,F09,famous,D,117,560,TRUE,s002,0.13158,<undefined>,0.1,0.51226,0.23333,-0.025888,0.32749,-0.045455,<undefined>,-0.02,0.32749,0.39645,-0.24581,0.18811,-0.090909
S03,super,F09,famous,D,26,1397,TRUE,s003,0.48,0.1,<undefined>,0.18,0.12,0.12059,0.28,0.21716,<undefined>,0.22059,0.28,0.22,0.021177,-0.04,-0.036569
S04,super,F09,famous,D,27,927,TRUE,s004,0.23684,0.51226,0.18,<undefined>,0.23333,-0.23928,0.40511,-0.045455,<undefined>,-0.02,0.40511,0.39898,-0.30178,0.46429,-0.22727
S07,super,F09,famous,D,76,911,TRUE,s005,0.13609,0.23333,0.12,0.23333,<undefined>,-0.10892,0.21144,0.20455,<undefined>,0.0068629,0.21144,0.20572,-0.14879,-0.055228,0.038325
S09,super,F09,famous,D,154,963,TRUE,s006,-0.055597,-0.025888,0.12059,-0.23928,-0.10892,<undefined>,0.011643,0.14416,<undefined>,0.26,0.011643,0.0062816,0.1393,-0.18214,0.090909
S10,super,F09,famous,D,116,631,TRUE,s007,0.52632,0.32749,0.28,0.40511,0.21144,0.011643,<undefined>,-0.041555,<undefined>,-0.0097056,1,0.88462,-0.36724,0.38462,-0.20455
S11,super,F09,famous,D,109,1077,TRUE,s008,0.00066903,-0.045455,0.21716,-0.045455,0.20455,0.14416,-0.041555,<undefined>,<undefined>,0.17029,-0.041555,-0.045455,0.19822,-0.29545,0.18182
S12,super,F09,famous,D,64,867,FALSE,s009,<undefined>,<undefined>,<undefined>,<undefined>,<undefined>,<undefined>,<undefined>,<undefined>,<undefined>,<undefined>,<undefined>,<undefined>,<undefined>,<undefined>,<undefined>
S13,super,F09,famous,D,54,1238,TRUE,s010,0.027452,-0.02,0.22059,-0.02,0.0068629,0.26,-0.0097056,0.17029,<undefined>,<undefined>,-0.0097056,-0.013137,0.24343,-0.2,-0.02
S14,super,F09,famous,D,115,640,TRUE,s011,0.52632,0.32749,0.28,0.40511,0.21144,0.011643,1,-0.041555,<undefined>,-0.0097056,<undefined>,0.88462,-0.36724,0.38462,-0.20455
S15,super,F09,famous,D,136,764,TRUE,s012,0.44737,0.39645,0.22,0.39898,0.20572,0.0062816,0.88462,-0.045455,<undefined>,-0.013137,0.88462,<undefined>,-0.37081,0.45833,-0.22727
S17,super,F09,famous,D,35,1375,TRUE,s013,-0.32853,-0.24581,0.021177,-0.30178,-0.14879,0.1393,-0.36724,0.19822,<undefined>,0.24343,-0.36724,-0.37081,<undefined>,-0.43035,0.29167
S90,super,F09,famous,D,90,676,TRUE,s014,0.10526,0.18811,-0.04,0.46429,-0.055228,-0.18214,0.38462,-0.29545,<undefined>,-0.2,0.38462,0.45833,-0.43035,<undefined>,-0.29545
S91,super,F09,famous,D,24,1080,TRUE,s015,-0.14349,-0.090909,-0.036569,-0.22727,0.038325,0.090909,-0.20455,0.18182,<undefined>,-0.02,-0.20455,-0.22727,0.29167,-0.29545,<undefined>
S01,super,F10,famous,A,2,3362,TRUE,s001,<undefined>,-0.17857,-0.044643,-0.071429,-0.29438,-0.20536,-0.125,-0.15179,-0.14286,-0.21096,-0.22602,-0.28112,-0.24107,-0.26786,-0.068365
S02,super,F10,famous,A,70,707,TRUE,s002,-0.17857,<undefined>,0.21504,0.625,-0.43872,0.52145,0.78571,-0.10271,0.375,-0.23941,0.58368,0.375,-0.33709,0.34763,-0.083333
S03,super,F10,famous,A,3,1132,TRUE,s003,-0.044643,0.21504,<undefined>,0.53083,0.022575,0.36842,0.22407,0.075514,0.71053,-0.0028427,0.19324,0.14512,0.052632,0.18421,0.0035744
S04,super,F10,famous,A,33,941,TRUE,s004,-0.071429,0.625,0.53083,<undefined>,-0.20711,0.35447,0.63572,-0.046918,0.59911,-0.12912,0.38572,0.19286,-0.066022,0.22411,-0.083333
S07,super,F10,famous,A,24,843,TRUE,s005,-0.29438,-0.43872,0.022575,-0.20711,<undefined>,-0.29692,-0.51015,-0.035364,-0.051777,0.083431,-0.5,-0.099964,0.11144,-0.30305,-0.20118
S09,super,F10,famous,A,123,671,TRUE,s006,-0.20536,0.52145,0.36842,0.35447,-0.29692,<undefined>,0.37553,-0.17414,0.15625,-0.24284,0.33368,0.61431,-0.15425,0.68182,0.020833
S10,super,F10,famous,A,139,663,TRUE,s007,-0.125,0.78571,0.22407,0.63572,-0.51015,0.37553,<undefined>,-0.094537,0.38572,-0.23255,0.59594,0.25,-0.32565,0.22654,-0.041667
S11,super,F10,famous,A,63,1031,TRUE,s008,-0.15179,-0.10271,0.075514,-0.046918,-0.035364,-0.17414,-0.094537,<undefined>,0.17484,0.063431,0.17484,-0.19048,0.28571,-0.15033,-0.048202
S12,super,F10,famous,A,44,796,TRUE,s009,-0.14286,0.375,0.71053,0.59911,-0.051777,0.15625,0.38572,0.17484,<undefined>,0.017157,0.3125,0.15625,-0.020527,0.0625,-0.1107
S13,super,F10,famous,A,16,1242,TRUE,s010,-0.21096,-0.23941,-0.0028427,-0.12912,0.083431,-0.24284,-0.23255,0.063431,0.017157,<undefined>,-0.05598,-0.31314,0.20686,-0.26971,-0.02
S14,super,F10,famous,A,82,667,TRUE,s011,-0.22602,0.58368,0.19324,0.38572,-0.5,0.33368,0.59594,0.17484,0.3125,-0.05598,<undefined>,0.25,-0.026633,0.22654,-0.20833
S15,super,F10,famous,A,27,883,TRUE,s012,-0.28112,0.375,0.14512,0.19286,-0.099964,0.61431,0.25,-0.19048,0.15625,-0.31314,0.25,<undefined>,-0.43709,0.42469,-0.10417
S17,super,F10,famous,A,138,900,TRUE,s013,-0.24107,-0.33709,0.052632,-0.066022,0.11144,-0.15425,-0.32565,0.28571,-0.020527,0.20686,-0.026633,-0.43709,<undefined>,-0.19902,-0.0625
S90,super,F10,famous,A,77,687,TRUE,s014,-0.26786,0.34763,0.18421,0.22411,-0.30305,0.68182,0.22654,-0.15033,0.0625,-0.26971,0.22654,0.42469,-0.19902,<undefined>,0.041667
S91,super,F10,famous,A,37,1368,TRUE,s015,-0.068365,-0.083333,0.0035744,-0.083333,-0.20118,0.020833,-0.041667,-0.048202,-0.1107,-0.02,-0.20833,-0.10417,-0.0625,0.041667,<undefined>
S01,super,F10,famous,B,90,1136,TRUE,s001,<undefined>,0.12929,0.075,0.125,-0.075,0.22145,0.125,0.36287,0.075,-0.0032304,0.17929,-0.175,0.056373,0.125,0.28261
S02,super,F10,famous,B,37,724,TRUE,s002,0.12929,<undefined>,0.40441,-0.082107,-0.18284,0.5,0.42308,-0.14379,0.11538,-0.43895,0.66667,-0.1107,-0.26331,0.54167,-0.19565
S03,super,F10,famous,B,137,799,TRUE,s003,0.075,0.40441,<undefined>,-0.28676,0.14477,0.4,0.53846,-0.25523,0.013198,-0.48373,0.57692,0.30769,-0.092276,0.61538,-0.043478
S04,super,F10,famous,B,137,652,TRUE,s004,0.125,-0.082107,-0.28676,<undefined>,-0.17712,-0.29902,-0.21757,0.2,-0.076923,-0.15909,-0.24877,-0.11297,-0.16216,-0.33244,0
S07,super,F10,famous,B,103,904,TRUE,s005,-0.075,-0.18284,0.14477,-0.17712,<undefined>,0,-0.066667,-0.027614,0.2781,-0.38959,-0.033333,-0.059966,-0.21622,-0.18856,-0.19192
S09,super,F10,famous,B,27,867,TRUE,s006,0.22145,0.5,0.4,-0.29902,0,<undefined>,0.42288,-0.0094757,0.26667,-0.34737,0.63333,-0.13333,-0.18919,0.46667,-0.036019
S10,super,F10,famous,B,32,620,TRUE,s007,0.125,0.42308,0.53846,-0.21757,-0.066667,0.42288,<undefined>,-0.099019,0.076923,-0.35194,0.5132,-0.076923,-0.21622,0.46154,-0.043478
S11,super,F10,famous,B,145,720,TRUE,s008,0.36287,-0.14379,-0.25523,0.2,-0.027614,-0.0094757,-0.099019,<undefined>,0.23905,0.075981,-0.065685,-0.13333,0.081081,-0.11046,0.30435
S12,super,F10,famous,B,75,693,TRUE,s009,0.075,0.11538,0.013198,-0.076923,0.2781,0.26667,0.076923,0.23905,<undefined>,-0.2422,0.34615,0.090121,-0.22741,0.24397,-0.061488
S13,super,F10,famous,B,115,1057,TRUE,s010,-0.0032304,-0.43895,-0.48373,-0.15909,-0.38959,-0.34737,-0.35194,0.075981,-0.2422,<undefined>,-0.3779,-0.25,0.12162,-0.41622,0.21057
S14,super,F10,famous,B,146,565,TRUE,s011,0.17929,0.66667,0.57692,-0.24877,-0.033333,0.63333,0.5132,-0.065685,0.34615,-0.3779,<undefined>,0.041667,-0.22973,0.70833,-0.1087
S15,super,F10,famous,B,130,759,TRUE,s012,-0.175,-0.1107,0.30769,-0.11297,-0.059966,-0.13333,-0.076923,-0.13333,0.090121,-0.25,0.041667,<undefined>,-0.16216,0,0.043478
S17,super,F10,famous,B,19,2018,TRUE,s013,0.056373,-0.26331,-0.092276,-0.16216,-0.21622,-0.18919,-0.21622,0.081081,-0.22741,0.12162,-0.22973,-0.16216,<undefined>,-0.18919,0.21622
S90,super,F10,famous,B,16,837,TRUE,s014,0.125,0.54167,0.61538,-0.33244,-0.18856,0.46667,0.46154,-0.11046,0.24397,-0.41622,0.70833,0,-0.18919,<undefined>,0
S91,super,F10,famous,B,99,1347,TRUE,s015,0.28261,-0.19565,-0.043478,0,-0.19192,-0.036019,-0.043478,0.30435,-0.061488,0.21057,-0.1087,0.043478,0.21622,0,<undefined>
S01,super,F10,famous,C,134,1179,TRUE,s001,<undefined>,0.1875,0.29167,-0.1875,-0.33629,0.25,0.4375,0.00061328,0.076798,-0.085248,0.4375,0.25,-0.1107,-0.020833,0.32322
S02,super,F10,famous,C,81,634,TRUE,s002,0.1875,<undefined>,0.21875,-0.23077,-0.38895,0.73077,0.6,0.052632,0.42968,-0.16651,0.6,0.73077,-0.37852,0.38462,0.53125
S03,super,F10,famous,C,114,990,TRUE,s003,0.29167,0.21875,<undefined>,0.25536,-0.39461,0.375,0.41697,-0.13158,0.15625,-0.19508,0.41697,0.375,-0.20267,0.21875,0.5
S04,super,F10,famous,C,26,782,TRUE,s004,-0.1875,-0.23077,0.25536,<undefined>,-0.42308,-0.070324,-0.1219,-0.36842,-0.15385,-0.29688,-0.1219,-0.070324,-0.40625,-0.18571,-0.057138
S07,super,F10,famous,C,154,829,TRUE,s005,-0.33629,-0.38895,-0.39461,-0.42308,<undefined>,-0.31066,-0.34853,0.078947,-0.22417,-0.03125,-0.34853,-0.31066,0.5625,-0.16544,-0.09283
S09,super,F10,famous,C,52,731,TRUE,s006,0.25,0.73077,0.375,-0.070324,-0.31066,<undefined>,0.7,0.16241,0.55826,-0.11428,0.7,1,-0.30622,0.45833,0.44822
S10,super,F10,famous,C,20,717,TRUE,s007,0.4375,0.6,0.41697,-0.1219,-0.34853,0.7,<undefined>,0.17596,0.42288,-0.10623,1,0.7,-0.29013,0.26667,0.46431
